"onset" "duration" "sample" "trial_type" "event_nr" "aoi" "trial" "target_word" "color" "mask" "underlining" "sentenceNr" "response"
0 1.31 813465 "Exp.Trial" 1 "[[339,394,\"NA\",\"NA\"]]" 1 "Spore" "blue" "degradated" "underlined" "42" NA
2.868 1.675 816333 "Exp.Trial" 2 "[[252,307,\"NA\",\"NA\"]]" 2 "Sumpf" "black" "degradated" "not underlined" "182" NA
5.928 1.795 819393 "Exp.Trial" 3 "[[550,605,\"NA\",\"NA\"]]" 3 "Quast" "blue" "degradated" "underlined" "61" NA
9.259 1.413 822724 "Exp.Trial" 4 "[[302,357,\"NA\",\"NA\"]]" 4 "Waage" "black" "non-degradated" "not underlined" "255" NA
12.294 1.557 825759 "Exp.Trial" 5 "[[525,580,\"NA\",\"NA\"]]" 5 "Heber" "black" "non-degradated" "underlined" "292" NA
15.433 1.395 828898 "Exp.Trial" 6 "[[327,382,\"NA\",\"NA\"]]" 6 "Reuse" "black" "non-degradated" "underlined" "315" NA
18.263 1.785 831728 "Exp.Trial" 7 "[[327,382,\"NA\",\"NA\"]]" 7 "Daune" "blue" "non-degradated" "not underlined" "110" NA
21.653 1.622 835118 "Exp.Trial" 8 "[[389,444,\"NA\",\"NA\"]]" 8 "Puder" "black" "degradated" "not underlined" "181" NA
24.648 1.919 838113 "Exp.Trial" 9 "[[364,419,\"NA\",\"NA\"]]" 9 "Griff" "black" "degradated" "underlined" "225" NA
27.933 1.713 841398 "Exp.Trial" 10 "[[389,444,\"NA\",\"NA\"]]" 10 "Bauer" "black" "degradated" "not underlined" "196" NA
31.239 2.828 844704 "Exp.Trial" 11 "[[376,431,\"NA\",\"NA\"]]" 11 "Sehne" "blue" "degradated" "not underlined" "26" 0
43.753 1.393 857218 "Exp.Trial" 12 "[[240,295,\"NA\",\"NA\"]]" 12 "Feger" "black" "non-degradated" "underlined" "285" NA
46.493 1.602 859958 "Exp.Trial" 13 "[[500,555,\"NA\",\"NA\"]]" 13 "Lauch" "black" "degradated" "not underlined" "197" NA
49.62 2.667 863085 "Exp.Trial" 14 "[[314,369,\"NA\",\"NA\"]]" 14 "Kugel" "black" "degradated" "not underlined" "186" NA
53.704 1.877 867169 "Exp.Trial" 15 "[[240,295,\"NA\",\"NA\"]]" 15 "Kutte" "blue" "degradated" "not underlined" "9" 0
61.901 1.565 875366 "Exp.Trial" 16 "[[339,394,\"NA\",\"NA\"]]" 16 "Raupe" "blue" "non-degradated" "underlined" "153" NA
65.135 1.924 878600 "Exp.Trial" 17 "[[364,419,\"NA\",\"NA\"]]" 17 "Garde" "blue" "degradated" "not underlined" "39" NA
68.526 1.568 881991 "Exp.Trial" 18 "[[327,382,\"NA\",\"NA\"]]" 18 "Laich" "blue" "non-degradated" "not underlined" "113" NA
71.44 1.386 884905 "Exp.Trial" 19 "[[240,295,\"NA\",\"NA\"]]" 19 "Pfahl" "black" "degradated" "not underlined" "189" NA
74.475 1.139 887940 "Exp.Trial" 20 "[[376,431,\"NA\",\"NA\"]]" 20 "Eifer" "blue" "non-degradated" "not underlined" "84" NA
77.016 2.369 890481 "Exp.Trial" 21 "[[426,481,\"NA\",\"NA\"]]" 21 "Liste" "blue" "non-degradated" "not underlined" "99" NA
80.98 1.911 894445 "Exp.Trial" 22 "[[414,469,\"NA\",\"NA\"]]" 22 "Pfand" "black" "degradated" "underlined" "201" NA
84.517 1.895 897982 "Exp.Trial" 23 "[[265,320,\"NA\",\"NA\"]]" 23 "Moder" "blue" "non-degradated" "not underlined" "97" NA
87.976 1.417 901441 "Exp.Trial" 24 "[[476,531,\"NA\",\"NA\"]]" 24 "Lunge" "blue" "non-degradated" "not underlined" "81" 0
97.303 1.831 910768 "Exp.Trial" 25 "[[550,605,\"NA\",\"NA\"]]" 25 "König" "black" "degradated" "not underlined" "178" NA
100.503 1.76 913968 "Exp.Trial" 26 "[[364,419,\"NA\",\"NA\"]]" 26 "Axiom" "blue" "degradated" "not underlined" "27" NA
103.949 1.381 917414 "Exp.Trial" 27 "[[290,345,\"NA\",\"NA\"]]" 27 "Tabak" "black" "non-degradated" "underlined" "316" NA
106.837 1.454 920302 "Exp.Trial" 28 "[[376,431,\"NA\",\"NA\"]]" 28 "These" "blue" "degradated" "underlined" "53" NA
109.861 1.119 923326 "Exp.Trial" 29 "[[228,283,\"NA\",\"NA\"]]" 29 "Übung" "blue" "non-degradated" "not underlined" "100" NA
112.385 1.153 925850 "Exp.Trial" 30 "[[438,493,\"NA\",\"NA\"]]" 30 "Musik" "black" "degradated" "not underlined" "200" NA
115.087 1.666 928552 "Exp.Trial" 31 "[[438,493,\"NA\",\"NA\"]]" 31 "Hagel" "black" "degradated" "underlined" "227" NA
118.327 1.313 931792 "Exp.Trial" 32 "[[451,506,\"NA\",\"NA\"]]" 32 "Äther" "blue" "degradated" "not underlined" "34" NA
120.996 1.303 934461 "Exp.Trial" 33 "[[364,419,\"NA\",\"NA\"]]" 33 "Spreu" "black" "degradated" "not underlined" "161" NA
123.849 1.256 937314 "Exp.Trial" 34 "[[290,345,\"NA\",\"NA\"]]" 34 "Möbel" "black" "degradated" "underlined" "226" NA
126.485 2.309 939950 "Exp.Trial" 35 "[[265,320,\"NA\",\"NA\"]]" 35 "Beize" "blue" "degradated" "underlined" "58" NA
130.401 1.478 943866 "Exp.Trial" 36 "[[327,382,\"NA\",\"NA\"]]" 36 "Rippe" "blue" "degradated" "underlined" "56" NA
133.295 1.828 946760 "Exp.Trial" 37 "[[290,345,\"NA\",\"NA\"]]" 37 "Miliz" "blue" "non-degradated" "not underlined" "120" NA
136.76 1.3 950225 "Exp.Trial" 38 "[[240,295,\"NA\",\"NA\"]]" 38 "Stube" "black" "non-degradated" "not underlined" "273" NA
139.621 1.099 953086 "Exp.Trial" 39 "[[302,357,\"NA\",\"NA\"]]" 39 "Treff" "black" "non-degradated" "not underlined" "270" NA
142.125 1.675 955590 "Exp.Trial" 40 "[[277,332,\"NA\",\"NA\"]]" 40 "Würze" "black" "non-degradated" "not underlined" "263" 0
150.98 1.755 964445 "Exp.Trial" 41 "[[401,456,\"NA\",\"NA\"]]" 41 "Mähre" "black" "degradated" "not underlined" "167" NA
154.221 1.371 967686 "Exp.Trial" 42 "[[265,320,\"NA\",\"NA\"]]" 42 "Votum" "black" "non-degradated" "underlined" "317" NA
157.114 1.153 970579 "Exp.Trial" 43 "[[215,270,\"NA\",\"NA\"]]" 43 "Linse" "black" "degradated" "not underlined" "162" NA
159.81 1.316 973275 "Exp.Trial" 44 "[[252,307,\"NA\",\"NA\"]]" 44 "Belag" "black" "degradated" "underlined" "218" NA
162.737 1.443 976202 "Exp.Trial" 45 "[[240,295,\"NA\",\"NA\"]]" 45 "Probe" "blue" "non-degradated" "not underlined" "117" NA
165.796 2.086 979261 "Exp.Trial" 46 "[[327,382,\"NA\",\"NA\"]]" 46 "Sorte" "black" "non-degradated" "underlined" "299" 0
177.298 1.457 990763 "Exp.Trial" 47 "[[401,456,\"NA\",\"NA\"]]" 47 "Lehne" "black" "degradated" "underlined" "224" NA
180.294 1.641 993759 "Exp.Trial" 48 "[[240,295,\"NA\",\"NA\"]]" 48 "Zecke" "black" "degradated" "not underlined" "170" 0
187.343 1.183 1000808 "Exp.Trial" 49 "[[265,320,\"NA\",\"NA\"]]" 49 "Summe" "blue" "non-degradated" "underlined" "123" 0
195.332 1.4 1008797 "Exp.Trial" 50 "[[339,394,\"NA\",\"NA\"]]" 50 "Falle" "black" "non-degradated" "not underlined" "244" 0
203.037 1.923 1016502 "Exp.Trial" 51 "[[228,283,\"NA\",\"NA\"]]" 51 "Wuchs" "blue" "non-degradated" "not underlined" "85" NA
206.537 1.259 1020002 "Exp.Trial" 52 "[[290,345,\"NA\",\"NA\"]]" 52 "Drama" "black" "non-degradated" "underlined" "314" 0
213.633 1.454 1027098 "Exp.Trial" 53 "[[252,307,\"NA\",\"NA\"]]" 53 "Wärme" "blue" "degradated" "not underlined" "21" NA
216.446 1.805 1029911 "Exp.Trial" 54 "[[252,307,\"NA\",\"NA\"]]" 54 "Druck" "blue" "degradated" "underlined" "75" NA
219.627 1.713 1033092 "Exp.Trial" 55 "[[389,444,\"NA\",\"NA\"]]" 55 "Obhut" "blue" "degradated" "not underlined" "40" NA
222.952 1.307 1036417 "Exp.Trial" 56 "[[240,295,\"NA\",\"NA\"]]" 56 "Jubel" "blue" "degradated" "not underlined" "12" NA
225.64 1.714 1039105 "Exp.Trial" 57 "[[314,369,\"NA\",\"NA\"]]" 57 "Beruf" "blue" "degradated" "not underlined" "17" NA
228.934 1.5 1042399 "Exp.Trial" 58 "[[265,320,\"NA\",\"NA\"]]" 58 "Hocke" "black" "non-degradated" "underlined" "308" NA
231.993 2.228 1045458 "Exp.Trial" 59 "[[277,332,\"NA\",\"NA\"]]" 59 "Chrom" "black" "degradated" "underlined" "213" NA
235.764 1.878 1049229 "Exp.Trial" 60 "[[277,332,\"NA\",\"NA\"]]" 60 "Slawe" "black" "degradated" "not underlined" "171" 0
243.464 1.258 1056929 "Exp.Trial" 61 "[[314,369,\"NA\",\"NA\"]]" 61 "Ikone" "black" "non-degradated" "not underlined" "267" NA
246.665 2.006 1060130 "Exp.Trial" 62 "[[228,283,\"NA\",\"NA\"]]" 62 "Baske" "blue" "degradated" "underlined" "78" NA
250.03 1.694 1063495 "Exp.Trial" 63 "[[426,481,\"NA\",\"NA\"]]" 63 "Troll" "blue" "degradated" "underlined" "57" NA
253.11 1.735 1066575 "Exp.Trial" 64 "[[215,270,\"NA\",\"NA\"]]" 64 "Hüter" "blue" "degradated" "underlined" "66" NA
256.634 1.54 1070099 "Exp.Trial" 65 "[[228,283,\"NA\",\"NA\"]]" 65 "Laken" "black" "non-degradated" "underlined" "298" NA
259.714 1.206 1073179 "Exp.Trial" 66 "[[265,320,\"NA\",\"NA\"]]" 66 "Sünde" "black" "degradated" "underlined" "207" NA
262.603 1.172 1076068 "Exp.Trial" 67 "[[327,382,\"NA\",\"NA\"]]" 67 "Lücke" "blue" "degradated" "underlined" "80" 0
269.713 2.055 1083178 "Exp.Trial" 68 "[[277,332,\"NA\",\"NA\"]]" 68 "Kluft" "black" "non-degradated" "not underlined" "258" NA
273.409 1.585 1086874 "Exp.Trial" 69 "[[314,369,\"NA\",\"NA\"]]" 69 "Brust" "black" "non-degradated" "not underlined" "251" 0
281.329 1.608 1094794 "Exp.Trial" 70 "[[265,320,\"NA\",\"NA\"]]" 70 "Manko" "black" "degradated" "not underlined" "173" NA
284.501 1.349 1097966 "Exp.Trial" 71 "[[352,407,\"NA\",\"NA\"]]" 71 "Lachs" "blue" "degradated" "not underlined" "24" 0
291.512 1.292 1104977 "Exp.Trial" 72 "[[277,332,\"NA\",\"NA\"]]" 72 "Gerät" "blue" "non-degradated" "not underlined" "119" NA
294.167 1.794 1107632 "Exp.Trial" 73 "[[240,295,\"NA\",\"NA\"]]" 73 "Lauge" "black" "degradated" "underlined" "236" NA
297.38 1.601 1110845 "Exp.Trial" 74 "[[290,345,\"NA\",\"NA\"]]" 74 "Armee" "black" "non-degradated" "underlined" "284" NA
300.374 1.23 1113839 "Exp.Trial" 75 "[[228,283,\"NA\",\"NA\"]]" 75 "Lager" "blue" "non-degradated" "underlined" "145" NA
302.969 1.573 1116434 "Exp.Trial" 76 "[[426,481,\"NA\",\"NA\"]]" 76 "Buchs" "blue" "degradated" "not underlined" "5" NA
305.912 1.189 1119377 "Exp.Trial" 77 "[[265,320,\"NA\",\"NA\"]]" 77 "Tante" "black" "degradated" "underlined" "215" NA
308.658 1.414 1122123 "Exp.Trial" 78 "[[265,320,\"NA\",\"NA\"]]" 78 "Panda" "blue" "degradated" "not underlined" "31" 0
316.285 1.118 1129750 "Exp.Trial" 79 "[[314,369,\"NA\",\"NA\"]]" 79 "Rinde" "blue" "non-degradated" "underlined" "148" NA
319.007 2.23 1132472 "Exp.Trial" 80 "[[550,605,\"NA\",\"NA\"]]" 80 "Korps" "black" "non-degradated" "underlined" "309" NA
322.632 1.88 1136097 "Exp.Trial" 81 "[[513,568,\"NA\",\"NA\"]]" 81 "Quint" "black" "non-degradated" "not underlined" "265" NA
326.097 1.489 1139562 "Exp.Trial" 82 "[[538,593,\"NA\",\"NA\"]]" 82 "Eimer" "black" "degradated" "underlined" "216" NA
329.006 1.065 1142471 "Exp.Trial" 83 "[[252,307,\"NA\",\"NA\"]]" 83 "Klotz" "blue" "non-degradated" "underlined" "136" NA
331.692 1.645 1145157 "Exp.Trial" 84 "[[327,382,\"NA\",\"NA\"]]" 84 "Kelch" "blue" "degradated" "not underlined" "8" NA
334.688 1.665 1148153 "Exp.Trial" 85 "[[488,543,\"NA\",\"NA\"]]" 85 "Tisch" "blue" "degradated" "underlined" "62" NA
337.979 1.893 1151444 "Exp.Trial" 86 "[[277,332,\"NA\",\"NA\"]]" 86 "Tapir" "blue" "non-degradated" "not underlined" "92" NA
341.292 1.157 1154757 "Exp.Trial" 87 "[[215,270,\"NA\",\"NA\"]]" 87 "Liege" "black" "non-degradated" "not underlined" "280" NA
343.847 1.565 1157312 "Exp.Trial" 88 "[[376,431,\"NA\",\"NA\"]]" 88 "Zitat" "black" "non-degradated" "underlined" "311" NA
346.921 1.526 1160386 "Exp.Trial" 89 "[[228,283,\"NA\",\"NA\"]]" 89 "Basar" "black" "degradated" "underlined" "203" NA
349.876 1.246 1163341 "Exp.Trial" 90 "[[339,394,\"NA\",\"NA\"]]" 90 "Seide" "blue" "non-degradated" "underlined" "152" NA
352.73 1.128 1166195 "Exp.Trial" 91 "[[228,283,\"NA\",\"NA\"]]" 91 "Mango" "black" "non-degradated" "underlined" "286" NA
355.305 1.625 1168770 "Exp.Trial" 92 "[[252,307,\"NA\",\"NA\"]]" 92 "Hülle" "black" "non-degradated" "underlined" "294" NA
358.339 1.604 1171804 "Exp.Trial" 93 "[[290,345,\"NA\",\"NA\"]]" 93 "Zobel" "blue" "non-degradated" "underlined" "158" 0
367.845 2.018 1181310 "Exp.Trial" 94 "[[352,407,\"NA\",\"NA\"]]" 94 "Dogma" "blue" "degradated" "underlined" "67" NA
371.283 1.461 1184748 "Exp.Trial" 95 "[[203,258,\"NA\",\"NA\"]]" 95 "Thron" "black" "non-degradated" "underlined" "307" NA
374.359 1.297 1187824 "Exp.Trial" 96 "[[364,419,\"NA\",\"NA\"]]" 96 "Polio" "blue" "non-degradated" "not underlined" "103" NA
377.351 1.38 1190816 "Exp.Trial" 97 "[[265,320,\"NA\",\"NA\"]]" 97 "Pilot" "blue" "non-degradated" "underlined" "132" NA
380.146 1.328 1193611 "Exp.Trial" 98 "[[240,295,\"NA\",\"NA\"]]" 98 "Amsel" "blue" "non-degradated" "underlined" "137" NA
383.046 1.334 1196511 "Exp.Trial" 99 "[[414,469,\"NA\",\"NA\"]]" 99 "Sippe" "black" "degradated" "not underlined" "188" NA
385.867 1.907 1199332 "Exp.Trial" 100 "[[277,332,\"NA\",\"NA\"]]" 100 "Kerze" "black" "degradated" "not underlined" "165" 0
394.603 1.422 1208068 "Exp.Trial" 101 "[[513,568,\"NA\",\"NA\"]]" 101 "Tolle" "black" "non-degradated" "underlined" "300" NA
397.678 1.427 1211143 "Exp.Trial" 102 "[[228,283,\"NA\",\"NA\"]]" 102 "Runde" "blue" "non-degradated" "not underlined" "108" NA
400.625 1.628 1214090 "Exp.Trial" 103 "[[302,357,\"NA\",\"NA\"]]" 103 "Feile" "black" "degradated" "not underlined" "185" 0
409.526 1.004 1222991 "Exp.Trial" 104 "[[376,431,\"NA\",\"NA\"]]" 104 "Rispe" "black" "non-degradated" "not underlined" "275" NA
411.877 1.107 1225342 "Exp.Trial" 105 "[[277,332,\"NA\",\"NA\"]]" 105 "Enkel" "black" "degradated" "underlined" "205" NA
414.591 1.588 1228056 "Exp.Trial" 106 "[[228,283,\"NA\",\"NA\"]]" 106 "Echse" "black" "non-degradated" "underlined" "288" NA
417.566 2.724 1231031 "Exp.Trial" 107 "[[314,369,\"NA\",\"NA\"]]" 107 "Dicke" "blue" "degradated" "underlined" "43" NA
421.893 1.66 1235358 "Exp.Trial" 108 "[[252,307,\"NA\",\"NA\"]]" 108 "Zwerg" "blue" "non-degradated" "not underlined" "93" NA
425.135 1.998 1238600 "Exp.Trial" 109 "[[252,307,\"NA\",\"NA\"]]" 109 "Sense" "blue" "degradated" "underlined" "44" NA
428.465 1.457 1241930 "Exp.Trial" 110 "[[290,345,\"NA\",\"NA\"]]" 110 "Seife" "blue" "degradated" "not underlined" "6" 0
436.664 1.644 1250129 "Exp.Trial" 111 "[[215,270,\"NA\",\"NA\"]]" 111 "Pirat" "blue" "non-degradated" "underlined" "133" NA
439.685 1.282 1253150 "Exp.Trial" 112 "[[265,320,\"NA\",\"NA\"]]" 112 "Getön" "black" "degradated" "not underlined" "175" NA
442.485 1.239 1255950 "Exp.Trial" 113 "[[426,481,\"NA\",\"NA\"]]" 113 "Pfund" "black" "degradated" "not underlined" "164" 0
449.993 0.999 1263458 "Exp.Trial" 114 "[[314,369,\"NA\",\"NA\"]]" 114 "Luder" "black" "non-degradated" "not underlined" "259" NA
452.609 2.137 1266074 "Exp.Trial" 115 "[[240,295,\"NA\",\"NA\"]]" 115 "Zinke" "black" "degradated" "not underlined" "168" NA
456.167 1.795 1269632 "Exp.Trial" 116 "[[488,543,\"NA\",\"NA\"]]" 116 "Bühne" "blue" "non-degradated" "not underlined" "101" NA
459.506 2.442 1272971 "Exp.Trial" 117 "[[228,283,\"NA\",\"NA\"]]" 117 "Kongo" "blue" "degradated" "not underlined" "15" NA
463.524 1.294 1276989 "Exp.Trial" 118 "[[339,394,\"NA\",\"NA\"]]" 118 "Trott" "black" "degradated" "not underlined" "194" 0
473.726 1.622 1287191 "Exp.Trial" 119 "[[228,283,\"NA\",\"NA\"]]" 119 "Sturz" "black" "degradated" "underlined" "219" 0
483.019 2.101 1296484 "Exp.Trial" 120 "[[426,481,\"NA\",\"NA\"]]" 120 "Beuge" "blue" "degradated" "underlined" "73" NA
486.496 1.046 1299961 "Exp.Trial" 121 "[[290,345,\"NA\",\"NA\"]]" 121 "Anker" "blue" "degradated" "not underlined" "22" NA
489.117 1.313 1302582 "Exp.Trial" 122 "[[476,531,\"NA\",\"NA\"]]" 122 "Reibe" "black" "non-degradated" "underlined" "295" NA
491.962 1.792 1305427 "Exp.Trial" 123 "[[426,481,\"NA\",\"NA\"]]" 123 "Müsli" "black" "degradated" "underlined" "210" NA
495.325 1.312 1308790 "Exp.Trial" 124 "[[451,506,\"NA\",\"NA\"]]" 124 "Ziege" "blue" "degradated" "underlined" "51" NA
498.18 1.317 1311645 "Exp.Trial" 125 "[[376,431,\"NA\",\"NA\"]]" 125 "Party" "black" "degradated" "not underlined" "184" 0
506.465 1.437 1319930 "Exp.Trial" 126 "[[314,369,\"NA\",\"NA\"]]" 126 "Gecko" "black" "non-degradated" "not underlined" "268" NA
509.312 2.177 1322777 "Exp.Trial" 127 "[[240,295,\"NA\",\"NA\"]]" 127 "Matte" "blue" "non-degradated" "underlined" "143" NA
512.878 1.565 1326343 "Exp.Trial" 128 "[[327,382,\"NA\",\"NA\"]]" 128 "Zuzug" "blue" "non-degradated" "not underlined" "106" NA
516.052 1.443 1329517 "Exp.Trial" 129 "[[327,382,\"NA\",\"NA\"]]" 129 "Knast" "black" "non-degradated" "not underlined" "278" 0
522.996 2.016 1336461 "Exp.Trial" 130 "[[414,469,\"NA\",\"NA\"]]" 130 "Fjord" "black" "non-degradated" "underlined" "283" 0
532.068 1.352 1345533 "Exp.Trial" 131 "[[252,307,\"NA\",\"NA\"]]" 131 "Abgas" "blue" "non-degradated" "underlined" "138" NA
534.836 1.283 1348301 "Exp.Trial" 132 "[[240,295,\"NA\",\"NA\"]]" 132 "Abzug" "blue" "non-degradated" "underlined" "130" NA
537.552 1.582 1351017 "Exp.Trial" 133 "[[352,407,\"NA\",\"NA\"]]" 133 "Mimik" "black" "non-degradated" "underlined" "293" NA
540.752 1.402 1354217 "Exp.Trial" 134 "[[401,456,\"NA\",\"NA\"]]" 134 "Wange" "black" "non-degradated" "not underlined" "256" NA
543.712 1.691 1357177 "Exp.Trial" 135 "[[252,307,\"NA\",\"NA\"]]" 135 "Mappe" "blue" "degradated" "not underlined" "32" NA
546.925 1.647 1360390 "Exp.Trial" 136 "[[401,456,\"NA\",\"NA\"]]" 136 "Gicht" "blue" "degradated" "not underlined" "33" 0
554.937 1.232 1368402 "Exp.Trial" 137 "[[252,307,\"NA\",\"NA\"]]" 137 "Tunke" "blue" "degradated" "not underlined" "30" NA
557.586 1.52 1371051 "Exp.Trial" 138 "[[277,332,\"NA\",\"NA\"]]" 138 "Geist" "blue" "non-degradated" "underlined" "134" NA
560.473 1.272 1373938 "Exp.Trial" 139 "[[277,332,\"NA\",\"NA\"]]" 139 "Herde" "black" "degradated" "underlined" "204" 0
567.032 1.642 1380497 "Exp.Trial" 140 "[[476,531,\"NA\",\"NA\"]]" 140 "Gusto" "black" "degradated" "underlined" "220" NA
570.245 1.319 1383710 "Exp.Trial" 141 "[[265,320,\"NA\",\"NA\"]]" 141 "Aktie" "black" "non-degradated" "not underlined" "248" NA
572.934 1.506 1386399 "Exp.Trial" 142 "[[228,283,\"NA\",\"NA\"]]" 142 "Phase" "blue" "degradated" "underlined" "69" 0
582.963 1.07 1396428 "Exp.Trial" 143 "[[376,431,\"NA\",\"NA\"]]" 143 "Würde" "blue" "non-degradated" "not underlined" "104" NA
585.422 1.382 1398887 "Exp.Trial" 144 "[[513,568,\"NA\",\"NA\"]]" 144 "Modul" "blue" "non-degradated" "underlined" "127" 0
593.128 1.695 1406593 "Exp.Trial" 145 "[[252,307,\"NA\",\"NA\"]]" 145 "Madam" "blue" "degradated" "not underlined" "4" NA
596.18 1.709 1409645 "Exp.Trial" 146 "[[476,531,\"NA\",\"NA\"]]" 146 "Erlös" "blue" "degradated" "underlined" "47" NA
599.267 1.121 1412732 "Exp.Trial" 147 "[[277,332,\"NA\",\"NA\"]]" 147 "Mensa" "blue" "non-degradated" "not underlined" "83" NA
601.797 1.205 1415262 "Exp.Trial" 148 "[[389,444,\"NA\",\"NA\"]]" 148 "Beute" "black" "degradated" "not underlined" "169" NA
604.419 2.026 1417884 "Exp.Trial" 149 "[[476,531,\"NA\",\"NA\"]]" 149 "Wanst" "black" "non-degradated" "underlined" "297" NA
607.996 1.645 1421461 "Exp.Trial" 150 "[[252,307,\"NA\",\"NA\"]]" 150 "Fehde" "black" "degradated" "not underlined" "176" NA
611.247 1.221 1424712 "Exp.Trial" 151 "[[290,345,\"NA\",\"NA\"]]" 151 "Raser" "blue" "degradated" "not underlined" "3" 0
618.273 1.459 1431738 "Exp.Trial" 152 "[[203,258,\"NA\",\"NA\"]]" 152 "Hafer" "black" "degradated" "not underlined" "177" NA
621.373 1.691 1434838 "Exp.Trial" 153 "[[426,481,\"NA\",\"NA\"]]" 153 "Meise" "blue" "non-degradated" "not underlined" "105" NA
624.738 1.193 1438203 "Exp.Trial" 154 "[[302,357,\"NA\",\"NA\"]]" 154 "Notiz" "black" "non-degradated" "not underlined" "242" NA
627.521 1.255 1440986 "Exp.Trial" 155 "[[339,394,\"NA\",\"NA\"]]" 155 "Karat" "blue" "degradated" "not underlined" "37" NA
630.123 1.178 1443588 "Exp.Trial" 156 "[[228,283,\"NA\",\"NA\"]]" 156 "Ölung" "blue" "degradated" "not underlined" "14" NA
632.691 1.607 1446156 "Exp.Trial" 157 "[[228,283,\"NA\",\"NA\"]]" 157 "Kunde" "blue" "degradated" "not underlined" "20" NA
635.884 1.558 1449349 "Exp.Trial" 158 "[[215,270,\"NA\",\"NA\"]]" 158 "Tarif" "blue" "non-degradated" "not underlined" "90" NA
638.804 1.246 1452269 "Exp.Trial" 159 "[[389,444,\"NA\",\"NA\"]]" 159 "Waffe" "black" "degradated" "not underlined" "174" NA
641.726 1.834 1455191 "Exp.Trial" 160 "[[228,283,\"NA\",\"NA\"]]" 160 "Nylon" "blue" "non-degradated" "underlined" "139" NA
645.118 1.304 1458583 "Exp.Trial" 161 "[[252,307,\"NA\",\"NA\"]]" 161 "Motte" "blue" "degradated" "underlined" "63" NA
647.8 2.155 1461265 "Exp.Trial" 162 "[[277,332,\"NA\",\"NA\"]]" 162 "Kuhle" "blue" "degradated" "underlined" "45" NA
651.511 1.032 1464976 "Exp.Trial" 163 "[[277,332,\"NA\",\"NA\"]]" 163 "Zeche" "blue" "non-degradated" "not underlined" "82" 0
657.599 1.964 1471064 "Exp.Trial" 164 "[[228,283,\"NA\",\"NA\"]]" 164 "Orbit" "black" "non-degradated" "underlined" "287" NA
661.948 1.532 1475413 "Exp.Trial" 165 "[[228,283,\"NA\",\"NA\"]]" 165 "Vogel" "black" "degradated" "underlined" "206" NA
665.105 1.362 1478570 "Exp.Trial" 166 "[[228,283,\"NA\",\"NA\"]]" 166 "Lette" "blue" "non-degradated" "not underlined" "96" NA
668.08 1.649 1481545 "Exp.Trial" 167 "[[240,295,\"NA\",\"NA\"]]" 167 "Szene" "blue" "degradated" "not underlined" "23" NA
671.133 1.551 1484598 "Exp.Trial" 168 "[[401,456,\"NA\",\"NA\"]]" 168 "Felge" "blue" "non-degradated" "underlined" "160" NA
674.214 1.839 1487679 "Exp.Trial" 169 "[[252,307,\"NA\",\"NA\"]]" 169 "Zicke" "black" "degradated" "not underlined" "183" NA
677.513 1.284 1490978 "Exp.Trial" 170 "[[228,283,\"NA\",\"NA\"]]" 170 "Krebs" "blue" "degradated" "not underlined" "29" NA
680.234 1.76 1493699 "Exp.Trial" 171 "[[277,332,\"NA\",\"NA\"]]" 171 "Kehle" "black" "non-degradated" "underlined" "319" NA
683.38 1.237 1496845 "Exp.Trial" 172 "[[339,394,\"NA\",\"NA\"]]" 172 "Malve" "black" "non-degradated" "not underlined" "241" NA
686.141 1.265 1499606 "Exp.Trial" 173 "[[314,369,\"NA\",\"NA\"]]" 173 "Feder" "black" "degradated" "underlined" "231" NA
688.791 0.947 1502256 "Exp.Trial" 174 "[[252,307,\"NA\",\"NA\"]]" 174 "Minze" "black" "non-degradated" "underlined" "303" 0
694.713 1.125 1508178 "Exp.Trial" 175 "[[314,369,\"NA\",\"NA\"]]" 175 "Twist" "blue" "degradated" "underlined" "79" NA
697.214 1.391 1510679 "Exp.Trial" 176 "[[228,283,\"NA\",\"NA\"]]" 176 "Blatt" "blue" "non-degradated" "not underlined" "115" NA
700.01 1.043 1513475 "Exp.Trial" 177 "[[327,382,\"NA\",\"NA\"]]" 177 "Beule" "black" "non-degradated" "not underlined" "266" NA
702.627 1.046 1516092 "Exp.Trial" 178 "[[290,345,\"NA\",\"NA\"]]" 178 "Wunde" "black" "degradated" "underlined" "202" NA
705.068 1.508 1518533 "Exp.Trial" 179 "[[228,283,\"NA\",\"NA\"]]" 179 "Radar" "black" "non-degradated" "underlined" "306" NA
707.982 1.05 1521447 "Exp.Trial" 180 "[[252,307,\"NA\",\"NA\"]]" 180 "Abend" "blue" "degradated" "not underlined" "7" NA
710.359 1.622 1523824 "Exp.Trial" 181 "[[215,270,\"NA\",\"NA\"]]" 181 "Union" "blue" "degradated" "underlined" "46" NA
713.367 1.003 1526832 "Exp.Trial" 182 "[[376,431,\"NA\",\"NA\"]]" 182 "Anruf" "blue" "non-degradated" "not underlined" "91" NA
715.73 0.957 1529195 "Exp.Trial" 183 "[[364,419,\"NA\",\"NA\"]]" 183 "Figur" "black" "degradated" "underlined" "232" NA
718.091 1.055 1531556 "Exp.Trial" 184 "[[228,283,\"NA\",\"NA\"]]" 184 "Pferd" "black" "non-degradated" "underlined" "282" 0
724.365 2.06 1537830 "Exp.Trial" 185 "[[240,295,\"NA\",\"NA\"]]" 185 "Strom" "black" "degradated" "not underlined" "163" 0
733.998 1.235 1547463 "Exp.Trial" 186 "[[414,469,\"NA\",\"NA\"]]" 186 "Decke" "blue" "non-degradated" "not underlined" "86" NA
737.794 1.564 1551259 "Exp.Trial" 187 "[[277,332,\"NA\",\"NA\"]]" 187 "Dunst" "blue" "non-degradated" "underlined" "150" NA
740.716 1.321 1554181 "Exp.Trial" 188 "[[401,456,\"NA\",\"NA\"]]" 188 "Bogen" "black" "degradated" "underlined" "221" NA
743.451 0.955 1556916 "Exp.Trial" 189 "[[228,283,\"NA\",\"NA\"]]" 189 "Henne" "black" "non-degradated" "underlined" "320" NA
745.913 1.531 1559378 "Exp.Trial" 190 "[[252,307,\"NA\",\"NA\"]]" 190 "Ruder" "black" "degradated" "underlined" "228" NA
749.046 1.313 1562511 "Exp.Trial" 191 "[[252,307,\"NA\",\"NA\"]]" 191 "Klima" "blue" "non-degradated" "underlined" "141" 0
755.99 2.008 1569455 "Exp.Trial" 192 "[[748,803,\"NA\",\"NA\"]]" 192 "Sühne" "blue" "degradated" "not underlined" "18" NA
759.349 1.38 1572814 "Exp.Trial" 193 "[[389,444,\"NA\",\"NA\"]]" 193 "Abruf" "blue" "degradated" "underlined" "71" 0
766.718 1.851 1580183 "Exp.Trial" 194 "[[252,307,\"NA\",\"NA\"]]" 194 "Achse" "black" "degradated" "not underlined" "172" 0
775.604 1.411 1589069 "Exp.Trial" 195 "[[240,295,\"NA\",\"NA\"]]" 195 "Flair" "blue" "non-degradated" "underlined" "147" 0
782.325 1.24 1595790 "Exp.Trial" 196 "[[265,320,\"NA\",\"NA\"]]" 196 "Bombe" "blue" "non-degradated" "underlined" "129" NA
785.125 1.259 1598590 "Exp.Trial" 197 "[[302,357,\"NA\",\"NA\"]]" 197 "Delta" "blue" "non-degradated" "underlined" "131" NA
787.94 1.753 1601405 "Exp.Trial" 198 "[[414,469,\"NA\",\"NA\"]]" 198 "Quart" "blue" "non-degradated" "underlined" "146" 0
797.359 1.199 1610824 "Exp.Trial" 199 "[[277,332,\"NA\",\"NA\"]]" 199 "Datei" "blue" "non-degradated" "underlined" "140" NA
800.229 1.501 1613694 "Exp.Trial" 200 "[[240,295,\"NA\",\"NA\"]]" 200 "Trupp" "black" "non-degradated" "not underlined" "262" NA
803.141 2.019 1616606 "Exp.Trial" 201 "[[314,369,\"NA\",\"NA\"]]" 201 "Mafia" "blue" "degradated" "not underlined" "16" 0
812.03 1.185 1625495 "Exp.Trial" 202 "[[252,307,\"NA\",\"NA\"]]" 202 "Kette" "black" "degradated" "not underlined" "199" NA
815.687 1.641 1629152 "Exp.Trial" 203 "[[252,307,\"NA\",\"NA\"]]" 203 "Depot" "blue" "non-degradated" "underlined" "135" NA
818.847 1.133 1632312 "Exp.Trial" 204 "[[215,270,\"NA\",\"NA\"]]" 204 "Yacht" "blue" "degradated" "not underlined" "28" 0
826.395 1.264 1639860 "Exp.Trial" 205 "[[414,469,\"NA\",\"NA\"]]" 205 "Stamm" "black" "non-degradated" "not underlined" "274" NA
830.272 1.208 1643737 "Exp.Trial" 206 "[[352,407,\"NA\",\"NA\"]]" 206 "Paket" "blue" "degradated" "underlined" "77" 0
836.545 0.919 1650010 "Exp.Trial" 207 "[[265,320,\"NA\",\"NA\"]]" 207 "Natur" "black" "non-degradated" "not underlined" "246" NA
838.828 1.17 1652293 "Exp.Trial" 208 "[[314,369,\"NA\",\"NA\"]]" 208 "Pedal" "black" "degradated" "underlined" "214" NA
841.352 1.309 1654817 "Exp.Trial" 209 "[[265,320,\"NA\",\"NA\"]]" 209 "Balte" "black" "degradated" "underlined" "239" NA
844.186 1.032 1657651 "Exp.Trial" 210 "[[265,320,\"NA\",\"NA\"]]" 210 "Spott" "black" "degradated" "not underlined" "180" NA
847.911 1.802 1661376 "Exp.Trial" 211 "[[327,382,\"NA\",\"NA\"]]" 211 "Karte" "black" "non-degradated" "not underlined" "254" NA
851.083 1.225 1664548 "Exp.Trial" 212 "[[290,345,\"NA\",\"NA\"]]" 212 "Bürde" "black" "degradated" "underlined" "238" NA
853.665 1.516 1667130 "Exp.Trial" 213 "[[314,369,\"NA\",\"NA\"]]" 213 "Härte" "blue" "degradated" "underlined" "72" NA
856.533 1.742 1669998 "Exp.Trial" 214 "[[290,345,\"NA\",\"NA\"]]" 214 "Porto" "blue" "degradated" "underlined" "59" 0
864.213 1.5 1677678 "Exp.Trial" 215 "[[364,419,\"NA\",\"NA\"]]" 215 "Viper" "blue" "degradated" "not underlined" "19" NA
867.182 1.686 1680647 "Exp.Trial" 216 "[[426,481,\"NA\",\"NA\"]]" 216 "Juwel" "blue" "non-degradated" "underlined" "142" NA
870.513 1.63 1683978 "Exp.Trial" 217 "[[252,307,\"NA\",\"NA\"]]" 217 "Panne" "black" "non-degradated" "not underlined" "276" NA
873.732 1.364 1687197 "Exp.Trial" 218 "[[277,332,\"NA\",\"NA\"]]" 218 "Salbe" "black" "non-degradated" "not underlined" "247" NA
876.562 1.479 1690027 "Exp.Trial" 219 "[[314,369,\"NA\",\"NA\"]]" 219 "Biest" "blue" "non-degradated" "not underlined" "114" NA
879.415 1.42 1692880 "Exp.Trial" 220 "[[401,456,\"NA\",\"NA\"]]" 220 "Klaps" "blue" "degradated" "underlined" "70" NA
882.256 1.447 1695721 "Exp.Trial" 221 "[[401,456,\"NA\",\"NA\"]]" 221 "Agent" "black" "non-degradated" "underlined" "291" NA
885.066 1.875 1698531 "Exp.Trial" 222 "[[302,357,\"NA\",\"NA\"]]" 222 "Teint" "black" "degradated" "underlined" "229" NA
888.496 1.161 1701961 "Exp.Trial" 223 "[[376,431,\"NA\",\"NA\"]]" 223 "Nagel" "blue" "degradated" "underlined" "65" NA
891.238 1.531 1704703 "Exp.Trial" 224 "[[215,270,\"NA\",\"NA\"]]" 224 "Bowle" "black" "non-degradated" "not underlined" "269" NA
894.219 0.963 1707684 "Exp.Trial" 225 "[[290,345,\"NA\",\"NA\"]]" 225 "Otter" "blue" "non-degradated" "not underlined" "112" 0
900.093 1.816 1713558 "Exp.Trial" 226 "[[302,357,\"NA\",\"NA\"]]" 226 "Sigma" "black" "degradated" "underlined" "234" NA
903.491 1.727 1716956 "Exp.Trial" 227 "[[265,320,\"NA\",\"NA\"]]" 227 "Dekan" "blue" "degradated" "not underlined" "11" 0
912.155 1.575 1725620 "Exp.Trial" 228 "[[600,655,\"NA\",\"NA\"]]" 228 "Leere" "black" "non-degradated" "underlined" "290" NA
915.122 1.415 1728587 "Exp.Trial" 229 "[[414,469,\"NA\",\"NA\"]]" 229 "Block" "blue" "degradated" "underlined" "60" NA
918.109 1.01 1731574 "Exp.Trial" 230 "[[290,345,\"NA\",\"NA\"]]" 230 "Elite" "black" "degradated" "underlined" "233" NA
920.72 1.239 1734185 "Exp.Trial" 231 "[[525,580,\"NA\",\"NA\"]]" 231 "Polka" "blue" "non-degradated" "not underlined" "102" NA
923.54 1.258 1737005 "Exp.Trial" 232 "[[352,407,\"NA\",\"NA\"]]" 232 "Stola" "blue" "non-degradated" "underlined" "124" NA
926.42 1.408 1739885 "Exp.Trial" 233 "[[228,283,\"NA\",\"NA\"]]" 233 "Masse" "blue" "degradated" "underlined" "50" NA
929.423 1.504 1742888 "Exp.Trial" 234 "[[352,407,\"NA\",\"NA\"]]" 234 "Fötus" "black" "non-degradated" "underlined" "289" NA
932.408 1.215 1745873 "Exp.Trial" 235 "[[277,332,\"NA\",\"NA\"]]" 235 "Beton" "blue" "non-degradated" "underlined" "125" NA
935.116 1.003 1748581 "Exp.Trial" 236 "[[228,283,\"NA\",\"NA\"]]" 236 "Ritze" "black" "non-degradated" "underlined" "318" 0
942.339 1.575 1755804 "Exp.Trial" 237 "[[352,407,\"NA\",\"NA\"]]" 237 "Witwe" "blue" "degradated" "underlined" "64" NA
945.486 1.375 1758951 "Exp.Trial" 238 "[[376,431,\"NA\",\"NA\"]]" 238 "Ärmel" "blue" "degradated" "underlined" "76" NA
948.306 1.213 1761771 "Exp.Trial" 239 "[[228,283,\"NA\",\"NA\"]]" 239 "Etage" "black" "non-degradated" "not underlined" "260" NA
951.169 1.499 1764634 "Exp.Trial" 240 "[[376,431,\"NA\",\"NA\"]]" 240 "Werft" "blue" "non-degradated" "not underlined" "87" NA
954.055 1.796 1767520 "Exp.Trial" 241 "[[339,394,\"NA\",\"NA\"]]" 241 "Pulle" "blue" "degradated" "underlined" "48" NA
957.381 0.878 1770846 "Exp.Trial" 242 "[[290,345,\"NA\",\"NA\"]]" 242 "Taube" "blue" "degradated" "underlined" "41" NA
959.711 1.56 1773176 "Exp.Trial" 243 "[[500,555,\"NA\",\"NA\"]]" 243 "Tulpe" "black" "non-degradated" "not underlined" "245" NA
962.633 1.795 1776098 "Exp.Trial" 244 "[[525,580,\"NA\",\"NA\"]]" 244 "Kakao" "black" "degradated" "underlined" "208" NA
965.852 1.409 1779317 "Exp.Trial" 245 "[[252,307,\"NA\",\"NA\"]]" 245 "Major" "black" "degradated" "not underlined" "195" NA
968.66 1.31 1782125 "Exp.Trial" 246 "[[302,357,\"NA\",\"NA\"]]" 246 "China" "black" "non-degradated" "not underlined" "257" 0
975.73 1.187 1789195 "Exp.Trial" 247 "[[228,283,\"NA\",\"NA\"]]" 247 "Stern" "black" "degradated" "underlined" "237" NA
978.272 1.519 1791737 "Exp.Trial" 248 "[[302,357,\"NA\",\"NA\"]]" 248 "Viola" "black" "degradated" "underlined" "217" 0
986.071 2.055 1799536 "Exp.Trial" 249 "[[228,283,\"NA\",\"NA\"]]" 249 "Ahorn" "black" "degradated" "not underlined" "193" NA
989.69 1 1803155 "Exp.Trial" 250 "[[401,456,\"NA\",\"NA\"]]" 250 "Weihe" "black" "non-degradated" "not underlined" "264" NA
992.099 1.398 1805564 "Exp.Trial" 251 "[[240,295,\"NA\",\"NA\"]]" 251 "Plage" "blue" "degradated" "underlined" "54" NA
994.888 1.254 1808353 "Exp.Trial" 252 "[[228,283,\"NA\",\"NA\"]]" 252 "Datum" "blue" "non-degradated" "not underlined" "107" NA
997.483 1.337 1810948 "Exp.Trial" 253 "[[339,394,\"NA\",\"NA\"]]" 253 "Ratte" "blue" "degradated" "underlined" "49" NA
1000.232 1.464 1813697 "Exp.Trial" 254 "[[327,382,\"NA\",\"NA\"]]" 254 "Beleg" "black" "degradated" "underlined" "212" NA
1003.105 1.407 1816570 "Exp.Trial" 255 "[[228,283,\"NA\",\"NA\"]]" 255 "Kokon" "blue" "degradated" "underlined" "52" NA
1005.92 1.538 1819385 "Exp.Trial" 256 "[[240,295,\"NA\",\"NA\"]]" 256 "Torte" "blue" "non-degradated" "underlined" "149" NA
1008.85 1.449 1822315 "Exp.Trial" 257 "[[575,630,\"NA\",\"NA\"]]" 257 "Blitz" "blue" "non-degradated" "underlined" "121" NA
1011.689 2.023 1825154 "Exp.Trial" 258 "[[215,270,\"NA\",\"NA\"]]" 258 "Psalm" "blue" "non-degradated" "not underlined" "118" NA
1015.141 1.171 1828606 "Exp.Trial" 259 "[[277,332,\"NA\",\"NA\"]]" 259 "Wüste" "black" "non-degradated" "not underlined" "261" 0
1022.444 2.027 1835909 "Exp.Trial" 260 "[[277,332,\"NA\",\"NA\"]]" 260 "Kater" "black" "non-degradated" "not underlined" "252" NA
1025.974 1.293 1839439 "Exp.Trial" 261 "[[389,444,\"NA\",\"NA\"]]" 261 "Logik" "blue" "non-degradated" "underlined" "144" NA
1028.597 1.437 1842062 "Exp.Trial" 262 "[[339,394,\"NA\",\"NA\"]]" 262 "Weber" "blue" "degradated" "not underlined" "38" NA
1031.384 1.021 1844849 "Exp.Trial" 263 "[[290,345,\"NA\",\"NA\"]]" 263 "Motiv" "blue" "degradated" "not underlined" "13" NA
1033.928 1.042 1847393 "Exp.Trial" 264 "[[290,345,\"NA\",\"NA\"]]" 264 "Fülle" "black" "non-degradated" "not underlined" "271" NA
1036.376 1.916 1849841 "Exp.Trial" 265 "[[376,431,\"NA\",\"NA\"]]" 265 "Abbau" "black" "non-degradated" "underlined" "302" NA
1039.65 1.203 1853115 "Exp.Trial" 266 "[[401,456,\"NA\",\"NA\"]]" 266 "Kiste" "black" "degradated" "not underlined" "187" 0
1046.659 1.319 1860124 "Exp.Trial" 267 "[[426,481,\"NA\",\"NA\"]]" 267 "Nudel" "blue" "non-degradated" "underlined" "154" NA
1049.375 1.454 1862840 "Exp.Trial" 268 "[[302,357,\"NA\",\"NA\"]]" 268 "Säule" "blue" "non-degradated" "underlined" "126" 0
1059.492 1.198 1872957 "Exp.Trial" 269 "[[352,407,\"NA\",\"NA\"]]" 269 "Optik" "black" "non-degradated" "underlined" "301" NA
1062.053 1.756 1875518 "Exp.Trial" 270 "[[488,543,\"NA\",\"NA\"]]" 270 "Götze" "black" "degradated" "not underlined" "179" 0
1069.826 1.264 1883291 "Exp.Trial" 271 "[[302,357,\"NA\",\"NA\"]]" 271 "Kolik" "black" "non-degradated" "not underlined" "253" 0
1076.492 1.219 1889957 "Exp.Trial" 272 "[[265,320,\"NA\",\"NA\"]]" 272 "Nonne" "black" "degradated" "not underlined" "198" NA
1079.339 1.479 1892804 "Exp.Trial" 273 "[[327,382,\"NA\",\"NA\"]]" 273 "Regie" "blue" "non-degradated" "not underlined" "116" NA
1082.241 1.153 1895706 "Exp.Trial" 274 "[[414,469,\"NA\",\"NA\"]]" 274 "Plane" "black" "non-degradated" "not underlined" "277" NA
1084.749 1.605 1898214 "Exp.Trial" 275 "[[314,369,\"NA\",\"NA\"]]" 275 "Kajak" "black" "degradated" "not underlined" "190" NA
1087.777 1.264 1901242 "Exp.Trial" 276 "[[265,320,\"NA\",\"NA\"]]" 276 "Miene" "blue" "non-degradated" "underlined" "155" NA
1090.447 1.963 1903912 "Exp.Trial" 277 "[[339,394,\"NA\",\"NA\"]]" 277 "Drill" "blue" "non-degradated" "underlined" "128" NA
1093.823 1.344 1907288 "Exp.Trial" 278 "[[352,407,\"NA\",\"NA\"]]" 278 "Radio" "blue" "non-degradated" "not underlined" "109" NA
1096.758 1.369 1910223 "Exp.Trial" 279 "[[302,357,\"NA\",\"NA\"]]" 279 "Mokka" "black" "non-degradated" "underlined" "312" NA
1099.486 1.376 1912951 "Exp.Trial" 280 "[[252,307,\"NA\",\"NA\"]]" 280 "Bitte" "black" "degradated" "underlined" "235" NA
1102.294 1.175 1915759 "Exp.Trial" 281 "[[240,295,\"NA\",\"NA\"]]" 281 "Messe" "black" "non-degradated" "underlined" "310" NA
1105.002 1.308 1918467 "Exp.Trial" 282 "[[302,357,\"NA\",\"NA\"]]" 282 "Anbau" "black" "non-degradated" "not underlined" "250" 0
1111.556 1.149 1925021 "Exp.Trial" 283 "[[265,320,\"NA\",\"NA\"]]" 283 "Nugat" "blue" "degradated" "underlined" "55" NA
1114.11 1.199 1927575 "Exp.Trial" 284 "[[538,593,\"NA\",\"NA\"]]" 284 "Gramm" "black" "non-degradated" "not underlined" "279" NA
1116.725 1.278 1930190 "Exp.Trial" 285 "[[290,345,\"NA\",\"NA\"]]" 285 "Sitte" "blue" "non-degradated" "underlined" "151" 0
1124.055 1.081 1937520 "Exp.Trial" 286 "[[228,283,\"NA\",\"NA\"]]" 286 "Onkel" "blue" "degradated" "not underlined" "35" 0
1131.005 0.967 1944470 "Exp.Trial" 287 "[[352,407,\"NA\",\"NA\"]]" 287 "Münze" "blue" "non-degradated" "not underlined" "94" 0
1137.975 1.426 1951440 "Exp.Trial" 288 "[[339,394,\"NA\",\"NA\"]]" 288 "Organ" "black" "non-degradated" "underlined" "305" NA
1140.948 1.563 1954413 "Exp.Trial" 289 "[[314,369,\"NA\",\"NA\"]]" 289 "Villa" "black" "degradated" "underlined" "240" NA
1144.017 2.535 1957482 "Exp.Trial" 290 "[[513,568,\"NA\",\"NA\"]]" 290 "Atoll" "blue" "non-degradated" "not underlined" "98" NA
1148.151 1.354 1961616 "Exp.Trial" 291 "[[314,369,\"NA\",\"NA\"]]" 291 "Boxer" "black" "non-degradated" "underlined" "313" NA
1150.919 1.162 1964384 "Exp.Trial" 292 "[[228,283,\"NA\",\"NA\"]]" 292 "Hecke" "black" "degradated" "underlined" "230" NA
1153.663 1.499 1967128 "Exp.Trial" 293 "[[314,369,\"NA\",\"NA\"]]" 293 "Zucht" "blue" "non-degradated" "not underlined" "111" NA
1156.509 2.267 1969974 "Exp.Trial" 294 "[[339,394,\"NA\",\"NA\"]]" 294 "Fauna" "blue" "degradated" "underlined" "68" NA
1160.438 0.972 1973903 "Exp.Trial" 295 "[[302,357,\"NA\",\"NA\"]]" 295 "Rache" "black" "degradated" "underlined" "223" 0
1166.407 1.252 1979872 "Exp.Trial" 296 "[[352,407,\"NA\",\"NA\"]]" 296 "Zwang" "black" "non-degradated" "not underlined" "272" NA
1169.082 1.632 1982547 "Exp.Trial" 297 "[[327,382,\"NA\",\"NA\"]]" 297 "Ungar" "blue" "non-degradated" "not underlined" "95" NA
1172.123 1.368 1985588 "Exp.Trial" 298 "[[339,394,\"NA\",\"NA\"]]" 298 "Opfer" "blue" "non-degradated" "underlined" "157" NA
1175.861 1.194 1989326 "Exp.Trial" 299 "[[302,357,\"NA\",\"NA\"]]" 299 "Büste" "blue" "degradated" "not underlined" "25" NA
1178.643 1.296 1992108 "Exp.Trial" 300 "[[339,394,\"NA\",\"NA\"]]" 300 "Gebet" "blue" "non-degradated" "underlined" "156" NA
1181.462 1.485 1994927 "Exp.Trial" 301 "[[277,332,\"NA\",\"NA\"]]" 301 "Pizza" "black" "degradated" "underlined" "211" NA
1184.528 0.992 1997993 "Exp.Trial" 302 "[[228,283,\"NA\",\"NA\"]]" 302 "Kleid" "black" "non-degradated" "underlined" "281" NA
1186.872 1.637 2000337 "Exp.Trial" 303 "[[376,431,\"NA\",\"NA\"]]" 303 "Heide" "black" "degradated" "not underlined" "191" NA
1189.879 1.449 2003344 "Exp.Trial" 304 "[[252,307,\"NA\",\"NA\"]]" 304 "Knabe" "blue" "degradated" "not underlined" "1" NA
1192.894 1.146 2006359 "Exp.Trial" 305 "[[376,431,\"NA\",\"NA\"]]" 305 "Wolle" "blue" "non-degradated" "underlined" "159" NA
1195.442 1.274 2008907 "Exp.Trial" 306 "[[228,283,\"NA\",\"NA\"]]" 306 "Alter" "black" "non-degradated" "underlined" "296" NA
1198.117 1.479 2011582 "Exp.Trial" 307 "[[228,283,\"NA\",\"NA\"]]" 307 "Genre" "black" "non-degradated" "not underlined" "249" NA
1201.521 1.287 2014986 "Exp.Trial" 308 "[[228,283,\"NA\",\"NA\"]]" 308 "Regal" "blue" "degradated" "not underlined" "10" NA
1204.199 1.187 2017664 "Exp.Trial" 309 "[[364,419,\"NA\",\"NA\"]]" 309 "Bande" "black" "degradated" "underlined" "209" 0
1211.055 1.101 2024520 "Exp.Trial" 310 "[[265,320,\"NA\",\"NA\"]]" 310 "Zeder" "black" "non-degradated" "underlined" "304" NA
1213.498 1.445 2026963 "Exp.Trial" 311 "[[488,543,\"NA\",\"NA\"]]" 311 "Kreml" "black" "degradated" "underlined" "222" NA
1216.361 1.381 2029826 "Exp.Trial" 312 "[[339,394,\"NA\",\"NA\"]]" 312 "Buche" "blue" "non-degradated" "underlined" "122" NA
1220.291 1.245 2033756 "Exp.Trial" 313 "[[252,307,\"NA\",\"NA\"]]" 313 "Motor" "blue" "non-degradated" "not underlined" "89" NA
1223.183 1.318 2036648 "Exp.Trial" 314 "[[240,295,\"NA\",\"NA\"]]" 314 "Gräte" "black" "non-degradated" "not underlined" "243" 0
1230.015 1.234 2043480 "Exp.Trial" 315 "[[277,332,\"NA\",\"NA\"]]" 315 "Blech" "blue" "degradated" "not underlined" "36" NA
1232.763 1.29 2046228 "Exp.Trial" 316 "[[339,394,\"NA\",\"NA\"]]" 316 "Insel" "blue" "degradated" "not underlined" "2" NA
1235.763 1.206 2049228 "Exp.Trial" 317 "[[277,332,\"NA\",\"NA\"]]" 317 "Zeile" "blue" "non-degradated" "not underlined" "88" 0
1243.172 1.497 2056637 "Exp.Trial" 318 "[[302,357,\"NA\",\"NA\"]]" 318 "Markt" "blue" "degradated" "underlined" "74" NA
1246.245 1.442 2059710 "Exp.Trial" 319 "[[265,320,\"NA\",\"NA\"]]" 319 "Prinz" "black" "degradated" "not underlined" "166" NA
1249.021 1.238 2062486 "Exp.Trial" 320 "[[265,320,\"NA\",\"NA\"]]" 320 "Dämon" "black" "degradated" "not underlined" "192" NA
