"onset" "duration" "sample" "trial_type" "eventIdentifier" "event_nr" "aoi" "trial" "target_word" "color" "mask" "underlining" "sentenceNr" "response"
0 1.31 813465 "Exp.Trial" "MASKSCREEN_START_Spore_E_DEG_U_339" 1 "[[328,405,384,384]]" 1 "Spore" "blue" "degradated" "underlined" "42" NA
2.868 1.675 816333 "Exp.Trial" "MASKSCREEN_START_Sumpf_K_DEG_N_252" 2 "[[241,318,384,384]]" 2 "Sumpf" "black" "degradated" "not underlined" "182" NA
5.928 1.795 819393 "Exp.Trial" "MASKSCREEN_START_Quast_E_DEG_U_550" 3 "[[539,616,384,384]]" 3 "Quast" "blue" "degradated" "underlined" "61" NA
9.259 1.413 822724 "Exp.Trial" "MASKSCREEN_START_Waage_K_LET_N_302" 4 "[[291,368,384,384]]" 4 "Waage" "black" "non-degradated" "not underlined" "255" NA
12.294 1.557 825759 "Exp.Trial" "MASKSCREEN_START_Heber_K_LET_U_525" 5 "[[514,591,384,384]]" 5 "Heber" "black" "non-degradated" "underlined" "292" NA
15.433 1.395 828898 "Exp.Trial" "MASKSCREEN_START_Reuse_K_LET_U_327" 6 "[[316,393,384,384]]" 6 "Reuse" "black" "non-degradated" "underlined" "315" NA
18.263 1.785 831728 "Exp.Trial" "MASKSCREEN_START_Daune_E_LET_N_327" 7 "[[316,393,384,384]]" 7 "Daune" "blue" "non-degradated" "not underlined" "110" NA
21.653 1.622 835118 "Exp.Trial" "MASKSCREEN_START_Puder_K_DEG_N_389" 8 "[[378,455,384,384]]" 8 "Puder" "black" "degradated" "not underlined" "181" NA
24.648 1.919 838113 "Exp.Trial" "MASKSCREEN_START_Griff_K_DEG_U_364" 9 "[[353,430,384,384]]" 9 "Griff" "black" "degradated" "underlined" "225" NA
27.933 1.713 841398 "Exp.Trial" "MASKSCREEN_START_Bauer_K_DEG_N_389" 10 "[[378,455,384,384]]" 10 "Bauer" "black" "degradated" "not underlined" "196" NA
31.239 2.828 844704 "Exp.Trial" "MASKSCREEN_START_Sehne_E_DEG_N_376" 11 "[[365,442,384,384]]" 11 "Sehne" "blue" "degradated" "not underlined" "26" 0
43.753 1.393 857218 "Exp.Trial" "MASKSCREEN_START_Feger_K_LET_U_240" 12 "[[229,306,384,384]]" 12 "Feger" "black" "non-degradated" "underlined" "285" NA
46.493 1.602 859958 "Exp.Trial" "MASKSCREEN_START_Lauch_K_DEG_N_500" 13 "[[489,566,384,384]]" 13 "Lauch" "black" "degradated" "not underlined" "197" NA
49.62 2.667 863085 "Exp.Trial" "MASKSCREEN_START_Kugel_K_DEG_N_314" 14 "[[303,380,384,384]]" 14 "Kugel" "black" "degradated" "not underlined" "186" NA
53.704 1.877 867169 "Exp.Trial" "MASKSCREEN_START_Kutte_E_DEG_N_240" 15 "[[229,306,384,384]]" 15 "Kutte" "blue" "degradated" "not underlined" "9" 0
61.901 1.565 875366 "Exp.Trial" "MASKSCREEN_START_Raupe_E_LET_U_339" 16 "[[328,405,384,384]]" 16 "Raupe" "blue" "non-degradated" "underlined" "153" NA
65.135 1.924 878600 "Exp.Trial" "MASKSCREEN_START_Garde_E_DEG_N_364" 17 "[[353,430,384,384]]" 17 "Garde" "blue" "degradated" "not underlined" "39" NA
68.526 1.568 881991 "Exp.Trial" "MASKSCREEN_START_Laich_E_LET_N_327" 18 "[[316,393,384,384]]" 18 "Laich" "blue" "non-degradated" "not underlined" "113" NA
71.44 1.386 884905 "Exp.Trial" "MASKSCREEN_START_Pfahl_K_DEG_N_240" 19 "[[229,306,384,384]]" 19 "Pfahl" "black" "degradated" "not underlined" "189" NA
74.475 1.139 887940 "Exp.Trial" "MASKSCREEN_START_Eifer_E_LET_N_376" 20 "[[365,442,384,384]]" 20 "Eifer" "blue" "non-degradated" "not underlined" "84" NA
77.016 2.369 890481 "Exp.Trial" "MASKSCREEN_START_Liste_E_LET_N_426" 21 "[[415,492,384,384]]" 21 "Liste" "blue" "non-degradated" "not underlined" "99" NA
80.98 1.911 894445 "Exp.Trial" "MASKSCREEN_START_Pfand_K_DEG_U_414" 22 "[[403,480,384,384]]" 22 "Pfand" "black" "degradated" "underlined" "201" NA
84.517 1.895 897982 "Exp.Trial" "MASKSCREEN_START_Moder_E_LET_N_265" 23 "[[254,331,384,384]]" 23 "Moder" "blue" "non-degradated" "not underlined" "97" NA
87.976 1.417 901441 "Exp.Trial" "MASKSCREEN_START_Lunge_E_LET_N_476" 24 "[[465,542,384,384]]" 24 "Lunge" "blue" "non-degradated" "not underlined" "81" 0
97.303 1.831 910768 "Exp.Trial" "MASKSCREEN_START_König_K_DEG_N_550" 25 "[[539,616,384,384]]" 25 "König" "black" "degradated" "not underlined" "178" NA
100.503 1.76 913968 "Exp.Trial" "MASKSCREEN_START_Axiom_E_DEG_N_364" 26 "[[353,430,384,384]]" 26 "Axiom" "blue" "degradated" "not underlined" "27" NA
103.949 1.381 917414 "Exp.Trial" "MASKSCREEN_START_Tabak_K_LET_U_290" 27 "[[279,356,384,384]]" 27 "Tabak" "black" "non-degradated" "underlined" "316" NA
106.837 1.454 920302 "Exp.Trial" "MASKSCREEN_START_These_E_DEG_U_376" 28 "[[365,442,384,384]]" 28 "These" "blue" "degradated" "underlined" "53" NA
109.861 1.119 923326 "Exp.Trial" "MASKSCREEN_START_Übung_E_LET_N_228" 29 "[[217,294,384,384]]" 29 "Übung" "blue" "non-degradated" "not underlined" "100" NA
112.385 1.153 925850 "Exp.Trial" "MASKSCREEN_START_Musik_K_DEG_N_438" 30 "[[427,504,384,384]]" 30 "Musik" "black" "degradated" "not underlined" "200" NA
115.087 1.666 928552 "Exp.Trial" "MASKSCREEN_START_Hagel_K_DEG_U_438" 31 "[[427,504,384,384]]" 31 "Hagel" "black" "degradated" "underlined" "227" NA
118.327 1.313 931792 "Exp.Trial" "MASKSCREEN_START_Äther_E_DEG_N_451" 32 "[[440,517,384,384]]" 32 "Äther" "blue" "degradated" "not underlined" "34" NA
120.996 1.303 934461 "Exp.Trial" "MASKSCREEN_START_Spreu_K_DEG_N_364" 33 "[[353,430,384,384]]" 33 "Spreu" "black" "degradated" "not underlined" "161" NA
123.849 1.256 937314 "Exp.Trial" "MASKSCREEN_START_Möbel_K_DEG_U_290" 34 "[[279,356,384,384]]" 34 "Möbel" "black" "degradated" "underlined" "226" NA
126.485 2.309 939950 "Exp.Trial" "MASKSCREEN_START_Beize_E_DEG_U_265" 35 "[[254,331,384,384]]" 35 "Beize" "blue" "degradated" "underlined" "58" NA
130.401 1.478 943866 "Exp.Trial" "MASKSCREEN_START_Rippe_E_DEG_U_327" 36 "[[316,393,384,384]]" 36 "Rippe" "blue" "degradated" "underlined" "56" NA
133.295 1.828 946760 "Exp.Trial" "MASKSCREEN_START_Miliz_E_LET_N_290" 37 "[[279,356,384,384]]" 37 "Miliz" "blue" "non-degradated" "not underlined" "120" NA
136.76 1.3 950225 "Exp.Trial" "MASKSCREEN_START_Stube_K_LET_N_240" 38 "[[229,306,384,384]]" 38 "Stube" "black" "non-degradated" "not underlined" "273" NA
139.621 1.099 953086 "Exp.Trial" "MASKSCREEN_START_Treff_K_LET_N_302" 39 "[[291,368,384,384]]" 39 "Treff" "black" "non-degradated" "not underlined" "270" NA
142.125 1.675 955590 "Exp.Trial" "MASKSCREEN_START_Würze_K_LET_N_277" 40 "[[266,343,384,384]]" 40 "Würze" "black" "non-degradated" "not underlined" "263" 0
150.98 1.755 964445 "Exp.Trial" "MASKSCREEN_START_Mähre_K_DEG_N_401" 41 "[[390,467,384,384]]" 41 "Mähre" "black" "degradated" "not underlined" "167" NA
154.221 1.371 967686 "Exp.Trial" "MASKSCREEN_START_Votum_K_LET_U_265" 42 "[[254,331,384,384]]" 42 "Votum" "black" "non-degradated" "underlined" "317" NA
157.114 1.153 970579 "Exp.Trial" "MASKSCREEN_START_Linse_K_DEG_N_215" 43 "[[204,281,384,384]]" 43 "Linse" "black" "degradated" "not underlined" "162" NA
159.81 1.316 973275 "Exp.Trial" "MASKSCREEN_START_Belag_K_DEG_U_252" 44 "[[241,318,384,384]]" 44 "Belag" "black" "degradated" "underlined" "218" NA
162.737 1.443 976202 "Exp.Trial" "MASKSCREEN_START_Probe_E_LET_N_240" 45 "[[229,306,384,384]]" 45 "Probe" "blue" "non-degradated" "not underlined" "117" NA
165.796 2.086 979261 "Exp.Trial" "MASKSCREEN_START_Sorte_K_LET_U_327" 46 "[[316,393,384,384]]" 46 "Sorte" "black" "non-degradated" "underlined" "299" 0
177.298 1.457 990763 "Exp.Trial" "MASKSCREEN_START_Lehne_K_DEG_U_401" 47 "[[390,467,384,384]]" 47 "Lehne" "black" "degradated" "underlined" "224" NA
180.294 1.641 993759 "Exp.Trial" "MASKSCREEN_START_Zecke_K_DEG_N_240" 48 "[[229,306,384,384]]" 48 "Zecke" "black" "degradated" "not underlined" "170" 0
187.343 1.183 1000808 "Exp.Trial" "MASKSCREEN_START_Summe_E_LET_U_265" 49 "[[254,331,384,384]]" 49 "Summe" "blue" "non-degradated" "underlined" "123" 0
195.332 1.4 1008797 "Exp.Trial" "MASKSCREEN_START_Falle_K_LET_N_339" 50 "[[328,405,384,384]]" 50 "Falle" "black" "non-degradated" "not underlined" "244" 0
203.037 1.923 1016502 "Exp.Trial" "MASKSCREEN_START_Wuchs_E_LET_N_228" 51 "[[217,294,384,384]]" 51 "Wuchs" "blue" "non-degradated" "not underlined" "85" NA
206.537 1.259 1020002 "Exp.Trial" "MASKSCREEN_START_Drama_K_LET_U_290" 52 "[[279,356,384,384]]" 52 "Drama" "black" "non-degradated" "underlined" "314" 0
213.633 1.454 1027098 "Exp.Trial" "MASKSCREEN_START_Wärme_E_DEG_N_252" 53 "[[241,318,384,384]]" 53 "Wärme" "blue" "degradated" "not underlined" "21" NA
216.446 1.805 1029911 "Exp.Trial" "MASKSCREEN_START_Druck_E_DEG_U_252" 54 "[[241,318,384,384]]" 54 "Druck" "blue" "degradated" "underlined" "75" NA
219.627 1.713 1033092 "Exp.Trial" "MASKSCREEN_START_Obhut_E_DEG_N_389" 55 "[[378,455,384,384]]" 55 "Obhut" "blue" "degradated" "not underlined" "40" NA
222.952 1.307 1036417 "Exp.Trial" "MASKSCREEN_START_Jubel_E_DEG_N_240" 56 "[[229,306,384,384]]" 56 "Jubel" "blue" "degradated" "not underlined" "12" NA
225.64 1.714 1039105 "Exp.Trial" "MASKSCREEN_START_Beruf_E_DEG_N_314" 57 "[[303,380,384,384]]" 57 "Beruf" "blue" "degradated" "not underlined" "17" NA
228.934 1.5 1042399 "Exp.Trial" "MASKSCREEN_START_Hocke_K_LET_U_265" 58 "[[254,331,384,384]]" 58 "Hocke" "black" "non-degradated" "underlined" "308" NA
231.993 2.228 1045458 "Exp.Trial" "MASKSCREEN_START_Chrom_K_DEG_U_277" 59 "[[266,343,384,384]]" 59 "Chrom" "black" "degradated" "underlined" "213" NA
235.764 1.878 1049229 "Exp.Trial" "MASKSCREEN_START_Slawe_K_DEG_N_277" 60 "[[266,343,384,384]]" 60 "Slawe" "black" "degradated" "not underlined" "171" 0
243.464 1.258 1056929 "Exp.Trial" "MASKSCREEN_START_Ikone_K_LET_N_314" 61 "[[303,380,384,384]]" 61 "Ikone" "black" "non-degradated" "not underlined" "267" NA
246.665 2.006 1060130 "Exp.Trial" "MASKSCREEN_START_Baske_E_DEG_U_228" 62 "[[217,294,384,384]]" 62 "Baske" "blue" "degradated" "underlined" "78" NA
250.03 1.694 1063495 "Exp.Trial" "MASKSCREEN_START_Troll_E_DEG_U_426" 63 "[[415,492,384,384]]" 63 "Troll" "blue" "degradated" "underlined" "57" NA
253.11 1.735 1066575 "Exp.Trial" "MASKSCREEN_START_Hüter_E_DEG_U_215" 64 "[[204,281,384,384]]" 64 "Hüter" "blue" "degradated" "underlined" "66" NA
256.634 1.54 1070099 "Exp.Trial" "MASKSCREEN_START_Laken_K_LET_U_228" 65 "[[217,294,384,384]]" 65 "Laken" "black" "non-degradated" "underlined" "298" NA
259.714 1.206 1073179 "Exp.Trial" "MASKSCREEN_START_Sünde_K_DEG_U_265" 66 "[[254,331,384,384]]" 66 "Sünde" "black" "degradated" "underlined" "207" NA
262.603 1.172 1076068 "Exp.Trial" "MASKSCREEN_START_Lücke_E_DEG_U_327" 67 "[[316,393,384,384]]" 67 "Lücke" "blue" "degradated" "underlined" "80" 0
269.713 2.055 1083178 "Exp.Trial" "MASKSCREEN_START_Kluft_K_LET_N_277" 68 "[[266,343,384,384]]" 68 "Kluft" "black" "non-degradated" "not underlined" "258" NA
273.409 1.585 1086874 "Exp.Trial" "MASKSCREEN_START_Brust_K_LET_N_314" 69 "[[303,380,384,384]]" 69 "Brust" "black" "non-degradated" "not underlined" "251" 0
281.329 1.608 1094794 "Exp.Trial" "MASKSCREEN_START_Manko_K_DEG_N_265" 70 "[[254,331,384,384]]" 70 "Manko" "black" "degradated" "not underlined" "173" NA
284.501 1.349 1097966 "Exp.Trial" "MASKSCREEN_START_Lachs_E_DEG_N_352" 71 "[[341,418,384,384]]" 71 "Lachs" "blue" "degradated" "not underlined" "24" 0
291.512 1.292 1104977 "Exp.Trial" "MASKSCREEN_START_Gerät_E_LET_N_277" 72 "[[266,343,384,384]]" 72 "Gerät" "blue" "non-degradated" "not underlined" "119" NA
294.167 1.794 1107632 "Exp.Trial" "MASKSCREEN_START_Lauge_K_DEG_U_240" 73 "[[229,306,384,384]]" 73 "Lauge" "black" "degradated" "underlined" "236" NA
297.38 1.601 1110845 "Exp.Trial" "MASKSCREEN_START_Armee_K_LET_U_290" 74 "[[279,356,384,384]]" 74 "Armee" "black" "non-degradated" "underlined" "284" NA
300.374 1.23 1113839 "Exp.Trial" "MASKSCREEN_START_Lager_E_LET_U_228" 75 "[[217,294,384,384]]" 75 "Lager" "blue" "non-degradated" "underlined" "145" NA
302.969 1.573 1116434 "Exp.Trial" "MASKSCREEN_START_Buchs_E_DEG_N_426" 76 "[[415,492,384,384]]" 76 "Buchs" "blue" "degradated" "not underlined" "5" NA
305.912 1.189 1119377 "Exp.Trial" "MASKSCREEN_START_Tante_K_DEG_U_265" 77 "[[254,331,384,384]]" 77 "Tante" "black" "degradated" "underlined" "215" NA
308.658 1.414 1122123 "Exp.Trial" "MASKSCREEN_START_Panda_E_DEG_N_265" 78 "[[254,331,384,384]]" 78 "Panda" "blue" "degradated" "not underlined" "31" 0
316.285 1.118 1129750 "Exp.Trial" "MASKSCREEN_START_Rinde_E_LET_U_314" 79 "[[303,380,384,384]]" 79 "Rinde" "blue" "non-degradated" "underlined" "148" NA
319.007 2.23 1132472 "Exp.Trial" "MASKSCREEN_START_Korps_K_LET_U_550" 80 "[[539,616,384,384]]" 80 "Korps" "black" "non-degradated" "underlined" "309" NA
322.632 1.88 1136097 "Exp.Trial" "MASKSCREEN_START_Quint_K_LET_N_513" 81 "[[502,579,384,384]]" 81 "Quint" "black" "non-degradated" "not underlined" "265" NA
326.097 1.489 1139562 "Exp.Trial" "MASKSCREEN_START_Eimer_K_DEG_U_538" 82 "[[527,604,384,384]]" 82 "Eimer" "black" "degradated" "underlined" "216" NA
329.006 1.065 1142471 "Exp.Trial" "MASKSCREEN_START_Klotz_E_LET_U_252" 83 "[[241,318,384,384]]" 83 "Klotz" "blue" "non-degradated" "underlined" "136" NA
331.692 1.645 1145157 "Exp.Trial" "MASKSCREEN_START_Kelch_E_DEG_N_327" 84 "[[316,393,384,384]]" 84 "Kelch" "blue" "degradated" "not underlined" "8" NA
334.688 1.665 1148153 "Exp.Trial" "MASKSCREEN_START_Tisch_E_DEG_U_488" 85 "[[477,554,384,384]]" 85 "Tisch" "blue" "degradated" "underlined" "62" NA
337.979 1.893 1151444 "Exp.Trial" "MASKSCREEN_START_Tapir_E_LET_N_277" 86 "[[266,343,384,384]]" 86 "Tapir" "blue" "non-degradated" "not underlined" "92" NA
341.292 1.157 1154757 "Exp.Trial" "MASKSCREEN_START_Liege_K_LET_N_215" 87 "[[204,281,384,384]]" 87 "Liege" "black" "non-degradated" "not underlined" "280" NA
343.847 1.565 1157312 "Exp.Trial" "MASKSCREEN_START_Zitat_K_LET_U_376" 88 "[[365,442,384,384]]" 88 "Zitat" "black" "non-degradated" "underlined" "311" NA
346.921 1.526 1160386 "Exp.Trial" "MASKSCREEN_START_Basar_K_DEG_U_228" 89 "[[217,294,384,384]]" 89 "Basar" "black" "degradated" "underlined" "203" NA
349.876 1.246 1163341 "Exp.Trial" "MASKSCREEN_START_Seide_E_LET_U_339" 90 "[[328,405,384,384]]" 90 "Seide" "blue" "non-degradated" "underlined" "152" NA
352.73 1.128 1166195 "Exp.Trial" "MASKSCREEN_START_Mango_K_LET_U_228" 91 "[[217,294,384,384]]" 91 "Mango" "black" "non-degradated" "underlined" "286" NA
355.305 1.625 1168770 "Exp.Trial" "MASKSCREEN_START_Hülle_K_LET_U_252" 92 "[[241,318,384,384]]" 92 "Hülle" "black" "non-degradated" "underlined" "294" NA
358.339 1.604 1171804 "Exp.Trial" "MASKSCREEN_START_Zobel_E_LET_U_290" 93 "[[279,356,384,384]]" 93 "Zobel" "blue" "non-degradated" "underlined" "158" 0
367.845 2.018 1181310 "Exp.Trial" "MASKSCREEN_START_Dogma_E_DEG_U_352" 94 "[[341,418,384,384]]" 94 "Dogma" "blue" "degradated" "underlined" "67" NA
371.283 1.461 1184748 "Exp.Trial" "MASKSCREEN_START_Thron_K_LET_U_203" 95 "[[192,269,384,384]]" 95 "Thron" "black" "non-degradated" "underlined" "307" NA
374.359 1.297 1187824 "Exp.Trial" "MASKSCREEN_START_Polio_E_LET_N_364" 96 "[[353,430,384,384]]" 96 "Polio" "blue" "non-degradated" "not underlined" "103" NA
377.351 1.38 1190816 "Exp.Trial" "MASKSCREEN_START_Pilot_E_LET_U_265" 97 "[[254,331,384,384]]" 97 "Pilot" "blue" "non-degradated" "underlined" "132" NA
380.146 1.328 1193611 "Exp.Trial" "MASKSCREEN_START_Amsel_E_LET_U_240" 98 "[[229,306,384,384]]" 98 "Amsel" "blue" "non-degradated" "underlined" "137" NA
383.046 1.334 1196511 "Exp.Trial" "MASKSCREEN_START_Sippe_K_DEG_N_414" 99 "[[403,480,384,384]]" 99 "Sippe" "black" "degradated" "not underlined" "188" NA
385.867 1.907 1199332 "Exp.Trial" "MASKSCREEN_START_Kerze_K_DEG_N_277" 100 "[[266,343,384,384]]" 100 "Kerze" "black" "degradated" "not underlined" "165" 0
394.603 1.422 1208068 "Exp.Trial" "MASKSCREEN_START_Tolle_K_LET_U_513" 101 "[[502,579,384,384]]" 101 "Tolle" "black" "non-degradated" "underlined" "300" NA
397.678 1.427 1211143 "Exp.Trial" "MASKSCREEN_START_Runde_E_LET_N_228" 102 "[[217,294,384,384]]" 102 "Runde" "blue" "non-degradated" "not underlined" "108" NA
400.625 1.628 1214090 "Exp.Trial" "MASKSCREEN_START_Feile_K_DEG_N_302" 103 "[[291,368,384,384]]" 103 "Feile" "black" "degradated" "not underlined" "185" 0
409.526 1.004 1222991 "Exp.Trial" "MASKSCREEN_START_Rispe_K_LET_N_376" 104 "[[365,442,384,384]]" 104 "Rispe" "black" "non-degradated" "not underlined" "275" NA
411.877 1.107 1225342 "Exp.Trial" "MASKSCREEN_START_Enkel_K_DEG_U_277" 105 "[[266,343,384,384]]" 105 "Enkel" "black" "degradated" "underlined" "205" NA
414.591 1.588 1228056 "Exp.Trial" "MASKSCREEN_START_Echse_K_LET_U_228" 106 "[[217,294,384,384]]" 106 "Echse" "black" "non-degradated" "underlined" "288" NA
417.566 2.724 1231031 "Exp.Trial" "MASKSCREEN_START_Dicke_E_DEG_U_314" 107 "[[303,380,384,384]]" 107 "Dicke" "blue" "degradated" "underlined" "43" NA
421.893 1.66 1235358 "Exp.Trial" "MASKSCREEN_START_Zwerg_E_LET_N_252" 108 "[[241,318,384,384]]" 108 "Zwerg" "blue" "non-degradated" "not underlined" "93" NA
425.135 1.998 1238600 "Exp.Trial" "MASKSCREEN_START_Sense_E_DEG_U_252" 109 "[[241,318,384,384]]" 109 "Sense" "blue" "degradated" "underlined" "44" NA
428.465 1.457 1241930 "Exp.Trial" "MASKSCREEN_START_Seife_E_DEG_N_290" 110 "[[279,356,384,384]]" 110 "Seife" "blue" "degradated" "not underlined" "6" 0
436.664 1.644 1250129 "Exp.Trial" "MASKSCREEN_START_Pirat_E_LET_U_215" 111 "[[204,281,384,384]]" 111 "Pirat" "blue" "non-degradated" "underlined" "133" NA
439.685 1.282 1253150 "Exp.Trial" "MASKSCREEN_START_Getön_K_DEG_N_265" 112 "[[254,331,384,384]]" 112 "Getön" "black" "degradated" "not underlined" "175" NA
442.485 1.239 1255950 "Exp.Trial" "MASKSCREEN_START_Pfund_K_DEG_N_426" 113 "[[415,492,384,384]]" 113 "Pfund" "black" "degradated" "not underlined" "164" 0
449.993 0.999 1263458 "Exp.Trial" "MASKSCREEN_START_Luder_K_LET_N_314" 114 "[[303,380,384,384]]" 114 "Luder" "black" "non-degradated" "not underlined" "259" NA
452.609 2.137 1266074 "Exp.Trial" "MASKSCREEN_START_Zinke_K_DEG_N_240" 115 "[[229,306,384,384]]" 115 "Zinke" "black" "degradated" "not underlined" "168" NA
456.167 1.795 1269632 "Exp.Trial" "MASKSCREEN_START_Bühne_E_LET_N_488" 116 "[[477,554,384,384]]" 116 "Bühne" "blue" "non-degradated" "not underlined" "101" NA
459.506 2.442 1272971 "Exp.Trial" "MASKSCREEN_START_Kongo_E_DEG_N_228" 117 "[[217,294,384,384]]" 117 "Kongo" "blue" "degradated" "not underlined" "15" NA
463.524 1.294 1276989 "Exp.Trial" "MASKSCREEN_START_Trott_K_DEG_N_339" 118 "[[328,405,384,384]]" 118 "Trott" "black" "degradated" "not underlined" "194" 0
473.726 1.622 1287191 "Exp.Trial" "MASKSCREEN_START_Sturz_K_DEG_U_228" 119 "[[217,294,384,384]]" 119 "Sturz" "black" "degradated" "underlined" "219" 0
483.019 2.101 1296484 "Exp.Trial" "MASKSCREEN_START_Beuge_E_DEG_U_426" 120 "[[415,492,384,384]]" 120 "Beuge" "blue" "degradated" "underlined" "73" NA
486.496 1.046 1299961 "Exp.Trial" "MASKSCREEN_START_Anker_E_DEG_N_290" 121 "[[279,356,384,384]]" 121 "Anker" "blue" "degradated" "not underlined" "22" NA
489.117 1.313 1302582 "Exp.Trial" "MASKSCREEN_START_Reibe_K_LET_U_476" 122 "[[465,542,384,384]]" 122 "Reibe" "black" "non-degradated" "underlined" "295" NA
491.962 1.792 1305427 "Exp.Trial" "MASKSCREEN_START_Müsli_K_DEG_U_426" 123 "[[415,492,384,384]]" 123 "Müsli" "black" "degradated" "underlined" "210" NA
495.325 1.312 1308790 "Exp.Trial" "MASKSCREEN_START_Ziege_E_DEG_U_451" 124 "[[440,517,384,384]]" 124 "Ziege" "blue" "degradated" "underlined" "51" NA
498.18 1.317 1311645 "Exp.Trial" "MASKSCREEN_START_Party_K_DEG_N_376" 125 "[[365,442,384,384]]" 125 "Party" "black" "degradated" "not underlined" "184" 0
506.465 1.437 1319930 "Exp.Trial" "MASKSCREEN_START_Gecko_K_LET_N_314" 126 "[[303,380,384,384]]" 126 "Gecko" "black" "non-degradated" "not underlined" "268" NA
509.312 2.177 1322777 "Exp.Trial" "MASKSCREEN_START_Matte_E_LET_U_240" 127 "[[229,306,384,384]]" 127 "Matte" "blue" "non-degradated" "underlined" "143" NA
512.878 1.565 1326343 "Exp.Trial" "MASKSCREEN_START_Zuzug_E_LET_N_327" 128 "[[316,393,384,384]]" 128 "Zuzug" "blue" "non-degradated" "not underlined" "106" NA
516.052 1.443 1329517 "Exp.Trial" "MASKSCREEN_START_Knast_K_LET_N_327" 129 "[[316,393,384,384]]" 129 "Knast" "black" "non-degradated" "not underlined" "278" 0
522.996 2.016 1336461 "Exp.Trial" "MASKSCREEN_START_Fjord_K_LET_U_414" 130 "[[403,480,384,384]]" 130 "Fjord" "black" "non-degradated" "underlined" "283" 0
532.068 1.352 1345533 "Exp.Trial" "MASKSCREEN_START_Abgas_E_LET_U_252" 131 "[[241,318,384,384]]" 131 "Abgas" "blue" "non-degradated" "underlined" "138" NA
534.836 1.283 1348301 "Exp.Trial" "MASKSCREEN_START_Abzug_E_LET_U_240" 132 "[[229,306,384,384]]" 132 "Abzug" "blue" "non-degradated" "underlined" "130" NA
537.552 1.582 1351017 "Exp.Trial" "MASKSCREEN_START_Mimik_K_LET_U_352" 133 "[[341,418,384,384]]" 133 "Mimik" "black" "non-degradated" "underlined" "293" NA
540.752 1.402 1354217 "Exp.Trial" "MASKSCREEN_START_Wange_K_LET_N_401" 134 "[[390,467,384,384]]" 134 "Wange" "black" "non-degradated" "not underlined" "256" NA
543.712 1.691 1357177 "Exp.Trial" "MASKSCREEN_START_Mappe_E_DEG_N_252" 135 "[[241,318,384,384]]" 135 "Mappe" "blue" "degradated" "not underlined" "32" NA
546.925 1.647 1360390 "Exp.Trial" "MASKSCREEN_START_Gicht_E_DEG_N_401" 136 "[[390,467,384,384]]" 136 "Gicht" "blue" "degradated" "not underlined" "33" 0
554.937 1.232 1368402 "Exp.Trial" "MASKSCREEN_START_Tunke_E_DEG_N_252" 137 "[[241,318,384,384]]" 137 "Tunke" "blue" "degradated" "not underlined" "30" NA
557.586 1.52 1371051 "Exp.Trial" "MASKSCREEN_START_Geist_E_LET_U_277" 138 "[[266,343,384,384]]" 138 "Geist" "blue" "non-degradated" "underlined" "134" NA
560.473 1.272 1373938 "Exp.Trial" "MASKSCREEN_START_Herde_K_DEG_U_277" 139 "[[266,343,384,384]]" 139 "Herde" "black" "degradated" "underlined" "204" 0
567.032 1.642 1380497 "Exp.Trial" "MASKSCREEN_START_Gusto_K_DEG_U_476" 140 "[[465,542,384,384]]" 140 "Gusto" "black" "degradated" "underlined" "220" NA
570.245 1.319 1383710 "Exp.Trial" "MASKSCREEN_START_Aktie_K_LET_N_265" 141 "[[254,331,384,384]]" 141 "Aktie" "black" "non-degradated" "not underlined" "248" NA
572.934 1.506 1386399 "Exp.Trial" "MASKSCREEN_START_Phase_E_DEG_U_228" 142 "[[217,294,384,384]]" 142 "Phase" "blue" "degradated" "underlined" "69" 0
582.963 1.07 1396428 "Exp.Trial" "MASKSCREEN_START_Würde_E_LET_N_376" 143 "[[365,442,384,384]]" 143 "Würde" "blue" "non-degradated" "not underlined" "104" NA
585.422 1.382 1398887 "Exp.Trial" "MASKSCREEN_START_Modul_E_LET_U_513" 144 "[[502,579,384,384]]" 144 "Modul" "blue" "non-degradated" "underlined" "127" 0
593.128 1.695 1406593 "Exp.Trial" "MASKSCREEN_START_Madam_E_DEG_N_252" 145 "[[241,318,384,384]]" 145 "Madam" "blue" "degradated" "not underlined" "4" NA
596.18 1.709 1409645 "Exp.Trial" "MASKSCREEN_START_Erlös_E_DEG_U_476" 146 "[[465,542,384,384]]" 146 "Erlös" "blue" "degradated" "underlined" "47" NA
599.267 1.121 1412732 "Exp.Trial" "MASKSCREEN_START_Mensa_E_LET_N_277" 147 "[[266,343,384,384]]" 147 "Mensa" "blue" "non-degradated" "not underlined" "83" NA
601.797 1.205 1415262 "Exp.Trial" "MASKSCREEN_START_Beute_K_DEG_N_389" 148 "[[378,455,384,384]]" 148 "Beute" "black" "degradated" "not underlined" "169" NA
604.419 2.026 1417884 "Exp.Trial" "MASKSCREEN_START_Wanst_K_LET_U_476" 149 "[[465,542,384,384]]" 149 "Wanst" "black" "non-degradated" "underlined" "297" NA
607.996 1.645 1421461 "Exp.Trial" "MASKSCREEN_START_Fehde_K_DEG_N_252" 150 "[[241,318,384,384]]" 150 "Fehde" "black" "degradated" "not underlined" "176" NA
611.247 1.221 1424712 "Exp.Trial" "MASKSCREEN_START_Raser_E_DEG_N_290" 151 "[[279,356,384,384]]" 151 "Raser" "blue" "degradated" "not underlined" "3" 0
618.273 1.459 1431738 "Exp.Trial" "MASKSCREEN_START_Hafer_K_DEG_N_203" 152 "[[192,269,384,384]]" 152 "Hafer" "black" "degradated" "not underlined" "177" NA
621.373 1.691 1434838 "Exp.Trial" "MASKSCREEN_START_Meise_E_LET_N_426" 153 "[[415,492,384,384]]" 153 "Meise" "blue" "non-degradated" "not underlined" "105" NA
624.738 1.193 1438203 "Exp.Trial" "MASKSCREEN_START_Notiz_K_LET_N_302" 154 "[[291,368,384,384]]" 154 "Notiz" "black" "non-degradated" "not underlined" "242" NA
627.521 1.255 1440986 "Exp.Trial" "MASKSCREEN_START_Karat_E_DEG_N_339" 155 "[[328,405,384,384]]" 155 "Karat" "blue" "degradated" "not underlined" "37" NA
630.123 1.178 1443588 "Exp.Trial" "MASKSCREEN_START_Ölung_E_DEG_N_228" 156 "[[217,294,384,384]]" 156 "Ölung" "blue" "degradated" "not underlined" "14" NA
632.691 1.607 1446156 "Exp.Trial" "MASKSCREEN_START_Kunde_E_DEG_N_228" 157 "[[217,294,384,384]]" 157 "Kunde" "blue" "degradated" "not underlined" "20" NA
635.884 1.558 1449349 "Exp.Trial" "MASKSCREEN_START_Tarif_E_LET_N_215" 158 "[[204,281,384,384]]" 158 "Tarif" "blue" "non-degradated" "not underlined" "90" NA
638.804 1.246 1452269 "Exp.Trial" "MASKSCREEN_START_Waffe_K_DEG_N_389" 159 "[[378,455,384,384]]" 159 "Waffe" "black" "degradated" "not underlined" "174" NA
641.726 1.834 1455191 "Exp.Trial" "MASKSCREEN_START_Nylon_E_LET_U_228" 160 "[[217,294,384,384]]" 160 "Nylon" "blue" "non-degradated" "underlined" "139" NA
645.118 1.304 1458583 "Exp.Trial" "MASKSCREEN_START_Motte_E_DEG_U_252" 161 "[[241,318,384,384]]" 161 "Motte" "blue" "degradated" "underlined" "63" NA
647.8 2.155 1461265 "Exp.Trial" "MASKSCREEN_START_Kuhle_E_DEG_U_277" 162 "[[266,343,384,384]]" 162 "Kuhle" "blue" "degradated" "underlined" "45" NA
651.511 1.032 1464976 "Exp.Trial" "MASKSCREEN_START_Zeche_E_LET_N_277" 163 "[[266,343,384,384]]" 163 "Zeche" "blue" "non-degradated" "not underlined" "82" 0
657.599 1.964 1471064 "Exp.Trial" "MASKSCREEN_START_Orbit_K_LET_U_228" 164 "[[217,294,384,384]]" 164 "Orbit" "black" "non-degradated" "underlined" "287" NA
661.948 1.532 1475413 "Exp.Trial" "MASKSCREEN_START_Vogel_K_DEG_U_228" 165 "[[217,294,384,384]]" 165 "Vogel" "black" "degradated" "underlined" "206" NA
665.105 1.362 1478570 "Exp.Trial" "MASKSCREEN_START_Lette_E_LET_N_228" 166 "[[217,294,384,384]]" 166 "Lette" "blue" "non-degradated" "not underlined" "96" NA
668.08 1.649 1481545 "Exp.Trial" "MASKSCREEN_START_Szene_E_DEG_N_240" 167 "[[229,306,384,384]]" 167 "Szene" "blue" "degradated" "not underlined" "23" NA
671.133 1.551 1484598 "Exp.Trial" "MASKSCREEN_START_Felge_E_LET_U_401" 168 "[[390,467,384,384]]" 168 "Felge" "blue" "non-degradated" "underlined" "160" NA
674.214 1.839 1487679 "Exp.Trial" "MASKSCREEN_START_Zicke_K_DEG_N_252" 169 "[[241,318,384,384]]" 169 "Zicke" "black" "degradated" "not underlined" "183" NA
677.513 1.284 1490978 "Exp.Trial" "MASKSCREEN_START_Krebs_E_DEG_N_228" 170 "[[217,294,384,384]]" 170 "Krebs" "blue" "degradated" "not underlined" "29" NA
680.234 1.76 1493699 "Exp.Trial" "MASKSCREEN_START_Kehle_K_LET_U_277" 171 "[[266,343,384,384]]" 171 "Kehle" "black" "non-degradated" "underlined" "319" NA
683.38 1.237 1496845 "Exp.Trial" "MASKSCREEN_START_Malve_K_LET_N_339" 172 "[[328,405,384,384]]" 172 "Malve" "black" "non-degradated" "not underlined" "241" NA
686.141 1.265 1499606 "Exp.Trial" "MASKSCREEN_START_Feder_K_DEG_U_314" 173 "[[303,380,384,384]]" 173 "Feder" "black" "degradated" "underlined" "231" NA
688.791 0.947 1502256 "Exp.Trial" "MASKSCREEN_START_Minze_K_LET_U_252" 174 "[[241,318,384,384]]" 174 "Minze" "black" "non-degradated" "underlined" "303" 0
694.713 1.125 1508178 "Exp.Trial" "MASKSCREEN_START_Twist_E_DEG_U_314" 175 "[[303,380,384,384]]" 175 "Twist" "blue" "degradated" "underlined" "79" NA
697.214 1.391 1510679 "Exp.Trial" "MASKSCREEN_START_Blatt_E_LET_N_228" 176 "[[217,294,384,384]]" 176 "Blatt" "blue" "non-degradated" "not underlined" "115" NA
700.01 1.043 1513475 "Exp.Trial" "MASKSCREEN_START_Beule_K_LET_N_327" 177 "[[316,393,384,384]]" 177 "Beule" "black" "non-degradated" "not underlined" "266" NA
702.627 1.046 1516092 "Exp.Trial" "MASKSCREEN_START_Wunde_K_DEG_U_290" 178 "[[279,356,384,384]]" 178 "Wunde" "black" "degradated" "underlined" "202" NA
705.068 1.508 1518533 "Exp.Trial" "MASKSCREEN_START_Radar_K_LET_U_228" 179 "[[217,294,384,384]]" 179 "Radar" "black" "non-degradated" "underlined" "306" NA
707.982 1.05 1521447 "Exp.Trial" "MASKSCREEN_START_Abend_E_DEG_N_252" 180 "[[241,318,384,384]]" 180 "Abend" "blue" "degradated" "not underlined" "7" NA
710.359 1.622 1523824 "Exp.Trial" "MASKSCREEN_START_Union_E_DEG_U_215" 181 "[[204,281,384,384]]" 181 "Union" "blue" "degradated" "underlined" "46" NA
713.367 1.003 1526832 "Exp.Trial" "MASKSCREEN_START_Anruf_E_LET_N_376" 182 "[[365,442,384,384]]" 182 "Anruf" "blue" "non-degradated" "not underlined" "91" NA
715.73 0.957 1529195 "Exp.Trial" "MASKSCREEN_START_Figur_K_DEG_U_364" 183 "[[353,430,384,384]]" 183 "Figur" "black" "degradated" "underlined" "232" NA
718.091 1.055 1531556 "Exp.Trial" "MASKSCREEN_START_Pferd_K_LET_U_228" 184 "[[217,294,384,384]]" 184 "Pferd" "black" "non-degradated" "underlined" "282" 0
724.365 2.06 1537830 "Exp.Trial" "MASKSCREEN_START_Strom_K_DEG_N_240" 185 "[[229,306,384,384]]" 185 "Strom" "black" "degradated" "not underlined" "163" 0
733.998 1.235 1547463 "Exp.Trial" "MASKSCREEN_START_Decke_E_LET_N_414" 186 "[[403,480,384,384]]" 186 "Decke" "blue" "non-degradated" "not underlined" "86" NA
737.794 1.564 1551259 "Exp.Trial" "MASKSCREEN_START_Dunst_E_LET_U_277" 187 "[[266,343,384,384]]" 187 "Dunst" "blue" "non-degradated" "underlined" "150" NA
740.716 1.321 1554181 "Exp.Trial" "MASKSCREEN_START_Bogen_K_DEG_U_401" 188 "[[390,467,384,384]]" 188 "Bogen" "black" "degradated" "underlined" "221" NA
743.451 0.955 1556916 "Exp.Trial" "MASKSCREEN_START_Henne_K_LET_U_228" 189 "[[217,294,384,384]]" 189 "Henne" "black" "non-degradated" "underlined" "320" NA
745.913 1.531 1559378 "Exp.Trial" "MASKSCREEN_START_Ruder_K_DEG_U_252" 190 "[[241,318,384,384]]" 190 "Ruder" "black" "degradated" "underlined" "228" NA
749.046 1.313 1562511 "Exp.Trial" "MASKSCREEN_START_Klima_E_LET_U_252" 191 "[[241,318,384,384]]" 191 "Klima" "blue" "non-degradated" "underlined" "141" 0
755.99 2.008 1569455 "Exp.Trial" "MASKSCREEN_START_Sühne_E_DEG_N_748" 192 "[[737,814,384,384]]" 192 "Sühne" "blue" "degradated" "not underlined" "18" NA
759.349 1.38 1572814 "Exp.Trial" "MASKSCREEN_START_Abruf_E_DEG_U_389" 193 "[[378,455,384,384]]" 193 "Abruf" "blue" "degradated" "underlined" "71" 0
766.718 1.851 1580183 "Exp.Trial" "MASKSCREEN_START_Achse_K_DEG_N_252" 194 "[[241,318,384,384]]" 194 "Achse" "black" "degradated" "not underlined" "172" 0
775.604 1.411 1589069 "Exp.Trial" "MASKSCREEN_START_Flair_E_LET_U_240" 195 "[[229,306,384,384]]" 195 "Flair" "blue" "non-degradated" "underlined" "147" 0
782.325 1.24 1595790 "Exp.Trial" "MASKSCREEN_START_Bombe_E_LET_U_265" 196 "[[254,331,384,384]]" 196 "Bombe" "blue" "non-degradated" "underlined" "129" NA
785.125 1.259 1598590 "Exp.Trial" "MASKSCREEN_START_Delta_E_LET_U_302" 197 "[[291,368,384,384]]" 197 "Delta" "blue" "non-degradated" "underlined" "131" NA
787.94 1.753 1601405 "Exp.Trial" "MASKSCREEN_START_Quart_E_LET_U_414" 198 "[[403,480,384,384]]" 198 "Quart" "blue" "non-degradated" "underlined" "146" 0
797.359 1.199 1610824 "Exp.Trial" "MASKSCREEN_START_Datei_E_LET_U_277" 199 "[[266,343,384,384]]" 199 "Datei" "blue" "non-degradated" "underlined" "140" NA
800.229 1.501 1613694 "Exp.Trial" "MASKSCREEN_START_Trupp_K_LET_N_240" 200 "[[229,306,384,384]]" 200 "Trupp" "black" "non-degradated" "not underlined" "262" NA
803.141 2.019 1616606 "Exp.Trial" "MASKSCREEN_START_Mafia_E_DEG_N_314" 201 "[[303,380,384,384]]" 201 "Mafia" "blue" "degradated" "not underlined" "16" 0
812.03 1.185 1625495 "Exp.Trial" "MASKSCREEN_START_Kette_K_DEG_N_252" 202 "[[241,318,384,384]]" 202 "Kette" "black" "degradated" "not underlined" "199" NA
815.687 1.641 1629152 "Exp.Trial" "MASKSCREEN_START_Depot_E_LET_U_252" 203 "[[241,318,384,384]]" 203 "Depot" "blue" "non-degradated" "underlined" "135" NA
818.847 1.133 1632312 "Exp.Trial" "MASKSCREEN_START_Yacht_E_DEG_N_215" 204 "[[204,281,384,384]]" 204 "Yacht" "blue" "degradated" "not underlined" "28" 0
826.395 1.264 1639860 "Exp.Trial" "MASKSCREEN_START_Stamm_K_LET_N_414" 205 "[[403,480,384,384]]" 205 "Stamm" "black" "non-degradated" "not underlined" "274" NA
830.272 1.208 1643737 "Exp.Trial" "MASKSCREEN_START_Paket_E_DEG_U_352" 206 "[[341,418,384,384]]" 206 "Paket" "blue" "degradated" "underlined" "77" 0
836.545 0.919 1650010 "Exp.Trial" "MASKSCREEN_START_Natur_K_LET_N_265" 207 "[[254,331,384,384]]" 207 "Natur" "black" "non-degradated" "not underlined" "246" NA
838.828 1.17 1652293 "Exp.Trial" "MASKSCREEN_START_Pedal_K_DEG_U_314" 208 "[[303,380,384,384]]" 208 "Pedal" "black" "degradated" "underlined" "214" NA
841.352 1.309 1654817 "Exp.Trial" "MASKSCREEN_START_Balte_K_DEG_U_265" 209 "[[254,331,384,384]]" 209 "Balte" "black" "degradated" "underlined" "239" NA
844.186 1.032 1657651 "Exp.Trial" "MASKSCREEN_START_Spott_K_DEG_N_265" 210 "[[254,331,384,384]]" 210 "Spott" "black" "degradated" "not underlined" "180" NA
847.911 1.802 1661376 "Exp.Trial" "MASKSCREEN_START_Karte_K_LET_N_327" 211 "[[316,393,384,384]]" 211 "Karte" "black" "non-degradated" "not underlined" "254" NA
851.083 1.225 1664548 "Exp.Trial" "MASKSCREEN_START_Bürde_K_DEG_U_290" 212 "[[279,356,384,384]]" 212 "Bürde" "black" "degradated" "underlined" "238" NA
853.665 1.516 1667130 "Exp.Trial" "MASKSCREEN_START_Härte_E_DEG_U_314" 213 "[[303,380,384,384]]" 213 "Härte" "blue" "degradated" "underlined" "72" NA
856.533 1.742 1669998 "Exp.Trial" "MASKSCREEN_START_Porto_E_DEG_U_290" 214 "[[279,356,384,384]]" 214 "Porto" "blue" "degradated" "underlined" "59" 0
864.213 1.5 1677678 "Exp.Trial" "MASKSCREEN_START_Viper_E_DEG_N_364" 215 "[[353,430,384,384]]" 215 "Viper" "blue" "degradated" "not underlined" "19" NA
867.182 1.686 1680647 "Exp.Trial" "MASKSCREEN_START_Juwel_E_LET_U_426" 216 "[[415,492,384,384]]" 216 "Juwel" "blue" "non-degradated" "underlined" "142" NA
870.513 1.63 1683978 "Exp.Trial" "MASKSCREEN_START_Panne_K_LET_N_252" 217 "[[241,318,384,384]]" 217 "Panne" "black" "non-degradated" "not underlined" "276" NA
873.732 1.364 1687197 "Exp.Trial" "MASKSCREEN_START_Salbe_K_LET_N_277" 218 "[[266,343,384,384]]" 218 "Salbe" "black" "non-degradated" "not underlined" "247" NA
876.562 1.479 1690027 "Exp.Trial" "MASKSCREEN_START_Biest_E_LET_N_314" 219 "[[303,380,384,384]]" 219 "Biest" "blue" "non-degradated" "not underlined" "114" NA
879.415 1.42 1692880 "Exp.Trial" "MASKSCREEN_START_Klaps_E_DEG_U_401" 220 "[[390,467,384,384]]" 220 "Klaps" "blue" "degradated" "underlined" "70" NA
882.256 1.447 1695721 "Exp.Trial" "MASKSCREEN_START_Agent_K_LET_U_401" 221 "[[390,467,384,384]]" 221 "Agent" "black" "non-degradated" "underlined" "291" NA
885.066 1.875 1698531 "Exp.Trial" "MASKSCREEN_START_Teint_K_DEG_U_302" 222 "[[291,368,384,384]]" 222 "Teint" "black" "degradated" "underlined" "229" NA
888.496 1.161 1701961 "Exp.Trial" "MASKSCREEN_START_Nagel_E_DEG_U_376" 223 "[[365,442,384,384]]" 223 "Nagel" "blue" "degradated" "underlined" "65" NA
891.238 1.531 1704703 "Exp.Trial" "MASKSCREEN_START_Bowle_K_LET_N_215" 224 "[[204,281,384,384]]" 224 "Bowle" "black" "non-degradated" "not underlined" "269" NA
894.219 0.963 1707684 "Exp.Trial" "MASKSCREEN_START_Otter_E_LET_N_290" 225 "[[279,356,384,384]]" 225 "Otter" "blue" "non-degradated" "not underlined" "112" 0
900.093 1.816 1713558 "Exp.Trial" "MASKSCREEN_START_Sigma_K_DEG_U_302" 226 "[[291,368,384,384]]" 226 "Sigma" "black" "degradated" "underlined" "234" NA
903.491 1.727 1716956 "Exp.Trial" "MASKSCREEN_START_Dekan_E_DEG_N_265" 227 "[[254,331,384,384]]" 227 "Dekan" "blue" "degradated" "not underlined" "11" 0
912.155 1.575 1725620 "Exp.Trial" "MASKSCREEN_START_Leere_K_LET_U_600" 228 "[[589,666,384,384]]" 228 "Leere" "black" "non-degradated" "underlined" "290" NA
915.122 1.415 1728587 "Exp.Trial" "MASKSCREEN_START_Block_E_DEG_U_414" 229 "[[403,480,384,384]]" 229 "Block" "blue" "degradated" "underlined" "60" NA
918.109 1.01 1731574 "Exp.Trial" "MASKSCREEN_START_Elite_K_DEG_U_290" 230 "[[279,356,384,384]]" 230 "Elite" "black" "degradated" "underlined" "233" NA
920.72 1.239 1734185 "Exp.Trial" "MASKSCREEN_START_Polka_E_LET_N_525" 231 "[[514,591,384,384]]" 231 "Polka" "blue" "non-degradated" "not underlined" "102" NA
923.54 1.258 1737005 "Exp.Trial" "MASKSCREEN_START_Stola_E_LET_U_352" 232 "[[341,418,384,384]]" 232 "Stola" "blue" "non-degradated" "underlined" "124" NA
926.42 1.408 1739885 "Exp.Trial" "MASKSCREEN_START_Masse_E_DEG_U_228" 233 "[[217,294,384,384]]" 233 "Masse" "blue" "degradated" "underlined" "50" NA
929.423 1.504 1742888 "Exp.Trial" "MASKSCREEN_START_Fötus_K_LET_U_352" 234 "[[341,418,384,384]]" 234 "Fötus" "black" "non-degradated" "underlined" "289" NA
932.408 1.215 1745873 "Exp.Trial" "MASKSCREEN_START_Beton_E_LET_U_277" 235 "[[266,343,384,384]]" 235 "Beton" "blue" "non-degradated" "underlined" "125" NA
935.116 1.003 1748581 "Exp.Trial" "MASKSCREEN_START_Ritze_K_LET_U_228" 236 "[[217,294,384,384]]" 236 "Ritze" "black" "non-degradated" "underlined" "318" 0
942.339 1.575 1755804 "Exp.Trial" "MASKSCREEN_START_Witwe_E_DEG_U_352" 237 "[[341,418,384,384]]" 237 "Witwe" "blue" "degradated" "underlined" "64" NA
945.486 1.375 1758951 "Exp.Trial" "MASKSCREEN_START_Ärmel_E_DEG_U_376" 238 "[[365,442,384,384]]" 238 "Ärmel" "blue" "degradated" "underlined" "76" NA
948.306 1.213 1761771 "Exp.Trial" "MASKSCREEN_START_Etage_K_LET_N_228" 239 "[[217,294,384,384]]" 239 "Etage" "black" "non-degradated" "not underlined" "260" NA
951.169 1.499 1764634 "Exp.Trial" "MASKSCREEN_START_Werft_E_LET_N_376" 240 "[[365,442,384,384]]" 240 "Werft" "blue" "non-degradated" "not underlined" "87" NA
954.055 1.796 1767520 "Exp.Trial" "MASKSCREEN_START_Pulle_E_DEG_U_339" 241 "[[328,405,384,384]]" 241 "Pulle" "blue" "degradated" "underlined" "48" NA
957.381 0.878 1770846 "Exp.Trial" "MASKSCREEN_START_Taube_E_DEG_U_290" 242 "[[279,356,384,384]]" 242 "Taube" "blue" "degradated" "underlined" "41" NA
959.711 1.56 1773176 "Exp.Trial" "MASKSCREEN_START_Tulpe_K_LET_N_500" 243 "[[489,566,384,384]]" 243 "Tulpe" "black" "non-degradated" "not underlined" "245" NA
962.633 1.795 1776098 "Exp.Trial" "MASKSCREEN_START_Kakao_K_DEG_U_525" 244 "[[514,591,384,384]]" 244 "Kakao" "black" "degradated" "underlined" "208" NA
965.852 1.409 1779317 "Exp.Trial" "MASKSCREEN_START_Major_K_DEG_N_252" 245 "[[241,318,384,384]]" 245 "Major" "black" "degradated" "not underlined" "195" NA
968.66 1.31 1782125 "Exp.Trial" "MASKSCREEN_START_China_K_LET_N_302" 246 "[[291,368,384,384]]" 246 "China" "black" "non-degradated" "not underlined" "257" 0
975.73 1.187 1789195 "Exp.Trial" "MASKSCREEN_START_Stern_K_DEG_U_228" 247 "[[217,294,384,384]]" 247 "Stern" "black" "degradated" "underlined" "237" NA
978.272 1.519 1791737 "Exp.Trial" "MASKSCREEN_START_Viola_K_DEG_U_302" 248 "[[291,368,384,384]]" 248 "Viola" "black" "degradated" "underlined" "217" 0
986.071 2.055 1799536 "Exp.Trial" "MASKSCREEN_START_Ahorn_K_DEG_N_228" 249 "[[217,294,384,384]]" 249 "Ahorn" "black" "degradated" "not underlined" "193" NA
989.69 1 1803155 "Exp.Trial" "MASKSCREEN_START_Weihe_K_LET_N_401" 250 "[[390,467,384,384]]" 250 "Weihe" "black" "non-degradated" "not underlined" "264" NA
992.099 1.398 1805564 "Exp.Trial" "MASKSCREEN_START_Plage_E_DEG_U_240" 251 "[[229,306,384,384]]" 251 "Plage" "blue" "degradated" "underlined" "54" NA
994.888 1.254 1808353 "Exp.Trial" "MASKSCREEN_START_Datum_E_LET_N_228" 252 "[[217,294,384,384]]" 252 "Datum" "blue" "non-degradated" "not underlined" "107" NA
997.483 1.337 1810948 "Exp.Trial" "MASKSCREEN_START_Ratte_E_DEG_U_339" 253 "[[328,405,384,384]]" 253 "Ratte" "blue" "degradated" "underlined" "49" NA
1000.232 1.464 1813697 "Exp.Trial" "MASKSCREEN_START_Beleg_K_DEG_U_327" 254 "[[316,393,384,384]]" 254 "Beleg" "black" "degradated" "underlined" "212" NA
1003.105 1.407 1816570 "Exp.Trial" "MASKSCREEN_START_Kokon_E_DEG_U_228" 255 "[[217,294,384,384]]" 255 "Kokon" "blue" "degradated" "underlined" "52" NA
1005.92 1.538 1819385 "Exp.Trial" "MASKSCREEN_START_Torte_E_LET_U_240" 256 "[[229,306,384,384]]" 256 "Torte" "blue" "non-degradated" "underlined" "149" NA
1008.85 1.449 1822315 "Exp.Trial" "MASKSCREEN_START_Blitz_E_LET_U_575" 257 "[[564,641,384,384]]" 257 "Blitz" "blue" "non-degradated" "underlined" "121" NA
1011.689 2.023 1825154 "Exp.Trial" "MASKSCREEN_START_Psalm_E_LET_N_215" 258 "[[204,281,384,384]]" 258 "Psalm" "blue" "non-degradated" "not underlined" "118" NA
1015.141 1.171 1828606 "Exp.Trial" "MASKSCREEN_START_Wüste_K_LET_N_277" 259 "[[266,343,384,384]]" 259 "Wüste" "black" "non-degradated" "not underlined" "261" 0
1022.444 2.027 1835909 "Exp.Trial" "MASKSCREEN_START_Kater_K_LET_N_277" 260 "[[266,343,384,384]]" 260 "Kater" "black" "non-degradated" "not underlined" "252" NA
1025.974 1.293 1839439 "Exp.Trial" "MASKSCREEN_START_Logik_E_LET_U_389" 261 "[[378,455,384,384]]" 261 "Logik" "blue" "non-degradated" "underlined" "144" NA
1028.597 1.437 1842062 "Exp.Trial" "MASKSCREEN_START_Weber_E_DEG_N_339" 262 "[[328,405,384,384]]" 262 "Weber" "blue" "degradated" "not underlined" "38" NA
1031.384 1.021 1844849 "Exp.Trial" "MASKSCREEN_START_Motiv_E_DEG_N_290" 263 "[[279,356,384,384]]" 263 "Motiv" "blue" "degradated" "not underlined" "13" NA
1033.928 1.042 1847393 "Exp.Trial" "MASKSCREEN_START_Fülle_K_LET_N_290" 264 "[[279,356,384,384]]" 264 "Fülle" "black" "non-degradated" "not underlined" "271" NA
1036.376 1.916 1849841 "Exp.Trial" "MASKSCREEN_START_Abbau_K_LET_U_376" 265 "[[365,442,384,384]]" 265 "Abbau" "black" "non-degradated" "underlined" "302" NA
1039.65 1.203 1853115 "Exp.Trial" "MASKSCREEN_START_Kiste_K_DEG_N_401" 266 "[[390,467,384,384]]" 266 "Kiste" "black" "degradated" "not underlined" "187" 0
1046.659 1.319 1860124 "Exp.Trial" "MASKSCREEN_START_Nudel_E_LET_U_426" 267 "[[415,492,384,384]]" 267 "Nudel" "blue" "non-degradated" "underlined" "154" NA
1049.375 1.454 1862840 "Exp.Trial" "MASKSCREEN_START_Säule_E_LET_U_302" 268 "[[291,368,384,384]]" 268 "Säule" "blue" "non-degradated" "underlined" "126" 0
1059.492 1.198 1872957 "Exp.Trial" "MASKSCREEN_START_Optik_K_LET_U_352" 269 "[[341,418,384,384]]" 269 "Optik" "black" "non-degradated" "underlined" "301" NA
1062.053 1.756 1875518 "Exp.Trial" "MASKSCREEN_START_Götze_K_DEG_N_488" 270 "[[477,554,384,384]]" 270 "Götze" "black" "degradated" "not underlined" "179" 0
1069.826 1.264 1883291 "Exp.Trial" "MASKSCREEN_START_Kolik_K_LET_N_302" 271 "[[291,368,384,384]]" 271 "Kolik" "black" "non-degradated" "not underlined" "253" 0
1076.492 1.219 1889957 "Exp.Trial" "MASKSCREEN_START_Nonne_K_DEG_N_265" 272 "[[254,331,384,384]]" 272 "Nonne" "black" "degradated" "not underlined" "198" NA
1079.339 1.479 1892804 "Exp.Trial" "MASKSCREEN_START_Regie_E_LET_N_327" 273 "[[316,393,384,384]]" 273 "Regie" "blue" "non-degradated" "not underlined" "116" NA
1082.241 1.153 1895706 "Exp.Trial" "MASKSCREEN_START_Plane_K_LET_N_414" 274 "[[403,480,384,384]]" 274 "Plane" "black" "non-degradated" "not underlined" "277" NA
1084.749 1.605 1898214 "Exp.Trial" "MASKSCREEN_START_Kajak_K_DEG_N_314" 275 "[[303,380,384,384]]" 275 "Kajak" "black" "degradated" "not underlined" "190" NA
1087.777 1.264 1901242 "Exp.Trial" "MASKSCREEN_START_Miene_E_LET_U_265" 276 "[[254,331,384,384]]" 276 "Miene" "blue" "non-degradated" "underlined" "155" NA
1090.447 1.963 1903912 "Exp.Trial" "MASKSCREEN_START_Drill_E_LET_U_339" 277 "[[328,405,384,384]]" 277 "Drill" "blue" "non-degradated" "underlined" "128" NA
1093.823 1.344 1907288 "Exp.Trial" "MASKSCREEN_START_Radio_E_LET_N_352" 278 "[[341,418,384,384]]" 278 "Radio" "blue" "non-degradated" "not underlined" "109" NA
1096.758 1.369 1910223 "Exp.Trial" "MASKSCREEN_START_Mokka_K_LET_U_302" 279 "[[291,368,384,384]]" 279 "Mokka" "black" "non-degradated" "underlined" "312" NA
1099.486 1.376 1912951 "Exp.Trial" "MASKSCREEN_START_Bitte_K_DEG_U_252" 280 "[[241,318,384,384]]" 280 "Bitte" "black" "degradated" "underlined" "235" NA
1102.294 1.175 1915759 "Exp.Trial" "MASKSCREEN_START_Messe_K_LET_U_240" 281 "[[229,306,384,384]]" 281 "Messe" "black" "non-degradated" "underlined" "310" NA
1105.002 1.308 1918467 "Exp.Trial" "MASKSCREEN_START_Anbau_K_LET_N_302" 282 "[[291,368,384,384]]" 282 "Anbau" "black" "non-degradated" "not underlined" "250" 0
1111.556 1.149 1925021 "Exp.Trial" "MASKSCREEN_START_Nugat_E_DEG_U_265" 283 "[[254,331,384,384]]" 283 "Nugat" "blue" "degradated" "underlined" "55" NA
1114.11 1.199 1927575 "Exp.Trial" "MASKSCREEN_START_Gramm_K_LET_N_538" 284 "[[527,604,384,384]]" 284 "Gramm" "black" "non-degradated" "not underlined" "279" NA
1116.725 1.278 1930190 "Exp.Trial" "MASKSCREEN_START_Sitte_E_LET_U_290" 285 "[[279,356,384,384]]" 285 "Sitte" "blue" "non-degradated" "underlined" "151" 0
1124.055 1.081 1937520 "Exp.Trial" "MASKSCREEN_START_Onkel_E_DEG_N_228" 286 "[[217,294,384,384]]" 286 "Onkel" "blue" "degradated" "not underlined" "35" 0
1131.005 0.967 1944470 "Exp.Trial" "MASKSCREEN_START_Münze_E_LET_N_352" 287 "[[341,418,384,384]]" 287 "Münze" "blue" "non-degradated" "not underlined" "94" 0
1137.975 1.426 1951440 "Exp.Trial" "MASKSCREEN_START_Organ_K_LET_U_339" 288 "[[328,405,384,384]]" 288 "Organ" "black" "non-degradated" "underlined" "305" NA
1140.948 1.563 1954413 "Exp.Trial" "MASKSCREEN_START_Villa_K_DEG_U_314" 289 "[[303,380,384,384]]" 289 "Villa" "black" "degradated" "underlined" "240" NA
1144.017 2.535 1957482 "Exp.Trial" "MASKSCREEN_START_Atoll_E_LET_N_513" 290 "[[502,579,384,384]]" 290 "Atoll" "blue" "non-degradated" "not underlined" "98" NA
1148.151 1.354 1961616 "Exp.Trial" "MASKSCREEN_START_Boxer_K_LET_U_314" 291 "[[303,380,384,384]]" 291 "Boxer" "black" "non-degradated" "underlined" "313" NA
1150.919 1.162 1964384 "Exp.Trial" "MASKSCREEN_START_Hecke_K_DEG_U_228" 292 "[[217,294,384,384]]" 292 "Hecke" "black" "degradated" "underlined" "230" NA
1153.663 1.499 1967128 "Exp.Trial" "MASKSCREEN_START_Zucht_E_LET_N_314" 293 "[[303,380,384,384]]" 293 "Zucht" "blue" "non-degradated" "not underlined" "111" NA
1156.509 2.267 1969974 "Exp.Trial" "MASKSCREEN_START_Fauna_E_DEG_U_339" 294 "[[328,405,384,384]]" 294 "Fauna" "blue" "degradated" "underlined" "68" NA
1160.438 0.972 1973903 "Exp.Trial" "MASKSCREEN_START_Rache_K_DEG_U_302" 295 "[[291,368,384,384]]" 295 "Rache" "black" "degradated" "underlined" "223" 0
1166.407 1.252 1979872 "Exp.Trial" "MASKSCREEN_START_Zwang_K_LET_N_352" 296 "[[341,418,384,384]]" 296 "Zwang" "black" "non-degradated" "not underlined" "272" NA
1169.082 1.632 1982547 "Exp.Trial" "MASKSCREEN_START_Ungar_E_LET_N_327" 297 "[[316,393,384,384]]" 297 "Ungar" "blue" "non-degradated" "not underlined" "95" NA
1172.123 1.368 1985588 "Exp.Trial" "MASKSCREEN_START_Opfer_E_LET_U_339" 298 "[[328,405,384,384]]" 298 "Opfer" "blue" "non-degradated" "underlined" "157" NA
1175.861 1.194 1989326 "Exp.Trial" "MASKSCREEN_START_Büste_E_DEG_N_302" 299 "[[291,368,384,384]]" 299 "Büste" "blue" "degradated" "not underlined" "25" NA
1178.643 1.296 1992108 "Exp.Trial" "MASKSCREEN_START_Gebet_E_LET_U_339" 300 "[[328,405,384,384]]" 300 "Gebet" "blue" "non-degradated" "underlined" "156" NA
1181.462 1.485 1994927 "Exp.Trial" "MASKSCREEN_START_Pizza_K_DEG_U_277" 301 "[[266,343,384,384]]" 301 "Pizza" "black" "degradated" "underlined" "211" NA
1184.528 0.992 1997993 "Exp.Trial" "MASKSCREEN_START_Kleid_K_LET_U_228" 302 "[[217,294,384,384]]" 302 "Kleid" "black" "non-degradated" "underlined" "281" NA
1186.872 1.637 2000337 "Exp.Trial" "MASKSCREEN_START_Heide_K_DEG_N_376" 303 "[[365,442,384,384]]" 303 "Heide" "black" "degradated" "not underlined" "191" NA
1189.879 1.449 2003344 "Exp.Trial" "MASKSCREEN_START_Knabe_E_DEG_N_252" 304 "[[241,318,384,384]]" 304 "Knabe" "blue" "degradated" "not underlined" "1" NA
1192.894 1.146 2006359 "Exp.Trial" "MASKSCREEN_START_Wolle_E_LET_U_376" 305 "[[365,442,384,384]]" 305 "Wolle" "blue" "non-degradated" "underlined" "159" NA
1195.442 1.274 2008907 "Exp.Trial" "MASKSCREEN_START_Alter_K_LET_U_228" 306 "[[217,294,384,384]]" 306 "Alter" "black" "non-degradated" "underlined" "296" NA
1198.117 1.479 2011582 "Exp.Trial" "MASKSCREEN_START_Genre_K_LET_N_228" 307 "[[217,294,384,384]]" 307 "Genre" "black" "non-degradated" "not underlined" "249" NA
1201.521 1.287 2014986 "Exp.Trial" "MASKSCREEN_START_Regal_E_DEG_N_228" 308 "[[217,294,384,384]]" 308 "Regal" "blue" "degradated" "not underlined" "10" NA
1204.199 1.187 2017664 "Exp.Trial" "MASKSCREEN_START_Bande_K_DEG_U_364" 309 "[[353,430,384,384]]" 309 "Bande" "black" "degradated" "underlined" "209" 0
1211.055 1.101 2024520 "Exp.Trial" "MASKSCREEN_START_Zeder_K_LET_U_265" 310 "[[254,331,384,384]]" 310 "Zeder" "black" "non-degradated" "underlined" "304" NA
1213.498 1.445 2026963 "Exp.Trial" "MASKSCREEN_START_Kreml_K_DEG_U_488" 311 "[[477,554,384,384]]" 311 "Kreml" "black" "degradated" "underlined" "222" NA
1216.361 1.381 2029826 "Exp.Trial" "MASKSCREEN_START_Buche_E_LET_U_339" 312 "[[328,405,384,384]]" 312 "Buche" "blue" "non-degradated" "underlined" "122" NA
1220.291 1.245 2033756 "Exp.Trial" "MASKSCREEN_START_Motor_E_LET_N_252" 313 "[[241,318,384,384]]" 313 "Motor" "blue" "non-degradated" "not underlined" "89" NA
1223.183 1.318 2036648 "Exp.Trial" "MASKSCREEN_START_Gräte_K_LET_N_240" 314 "[[229,306,384,384]]" 314 "Gräte" "black" "non-degradated" "not underlined" "243" 0
1230.015 1.234 2043480 "Exp.Trial" "MASKSCREEN_START_Blech_E_DEG_N_277" 315 "[[266,343,384,384]]" 315 "Blech" "blue" "degradated" "not underlined" "36" NA
1232.763 1.29 2046228 "Exp.Trial" "MASKSCREEN_START_Insel_E_DEG_N_339" 316 "[[328,405,384,384]]" 316 "Insel" "blue" "degradated" "not underlined" "2" NA
1235.763 1.206 2049228 "Exp.Trial" "MASKSCREEN_START_Zeile_E_LET_N_277" 317 "[[266,343,384,384]]" 317 "Zeile" "blue" "non-degradated" "not underlined" "88" 0
1243.172 1.497 2056637 "Exp.Trial" "MASKSCREEN_START_Markt_E_DEG_U_302" 318 "[[291,368,384,384]]" 318 "Markt" "blue" "degradated" "underlined" "74" NA
1246.245 1.442 2059710 "Exp.Trial" "MASKSCREEN_START_Prinz_K_DEG_N_265" 319 "[[254,331,384,384]]" 319 "Prinz" "black" "degradated" "not underlined" "166" NA
1249.021 1.238 2062486 "Exp.Trial" "MASKSCREEN_START_Dämon_K_DEG_N_265" 320 "[[254,331,384,384]]" 320 "Dämon" "black" "degradated" "not underlined" "192" NA
