"onset" "duration" "sample" "trial_type" "eventIdentifier" "event_nr" "aoi" "trial" "target_word" "color" "mask" "underlining" "sentenceNr" "response"
0 3.59 12041762 "Exp.Trial" "MASKSCREEN_START_Härte_K_DEG_U_314" 1 "[[303,380,384,384]]" 1 "Härte" "black" "degradated" "underlined" "72" NA
6.643 2.619 12048405 "Exp.Trial" "MASKSCREEN_START_Mafia_K_DEG_N_314" 2 "[[303,380,384,384]]" 2 "Mafia" "black" "degradated" "not underlined" "16" NA
11.16 2.762 12052922 "Exp.Trial" "MASKSCREEN_START_Tulpe_E_LET_N_500" 3 "[[489,566,384,384]]" 3 "Tulpe" "blue" "non-degradated" "not underlined" "245" NA
15.613 2.097 12057375 "Exp.Trial" "MASKSCREEN_START_Salbe_E_LET_N_277" 4 "[[266,343,384,384]]" 4 "Salbe" "blue" "non-degradated" "not underlined" "247" NA
19.729 2.96 12061491 "Exp.Trial" "MASKSCREEN_START_Kutte_K_DEG_N_240" 5 "[[229,306,384,384]]" 5 "Kutte" "black" "degradated" "not underlined" "9" NA
24.541 2.736 12066303 "Exp.Trial" "MASKSCREEN_START_Gramm_E_LET_N_538" 6 "[[527,604,384,384]]" 6 "Gramm" "blue" "non-degradated" "not underlined" "279" NA
31.102 2.896 12072864 "Exp.Trial" "MASKSCREEN_START_Tapir_K_LET_N_277" 7 "[[266,343,384,384]]" 7 "Tapir" "black" "non-degradated" "not underlined" "92" NA
37.241 1.983 12079003 "Exp.Trial" "MASKSCREEN_START_Lachs_K_DEG_N_352" 8 "[[341,418,384,384]]" 8 "Lachs" "black" "degradated" "not underlined" "24" 0
45.444 1.607 12087206 "Exp.Trial" "MASKSCREEN_START_Luder_E_LET_N_314" 9 "[[303,380,384,384]]" 9 "Luder" "blue" "non-degradated" "not underlined" "259" NA
49.802 4.395 12091564 "Exp.Trial" "MASKSCREEN_START_Dicke_K_DEG_U_314" 10 "[[303,380,384,384]]" 10 "Dicke" "black" "degradated" "underlined" "43" NA
57.52 2.534 12099282 "Exp.Trial" "MASKSCREEN_START_Pfund_E_DEG_N_426" 11 "[[415,492,384,384]]" 11 "Pfund" "blue" "degradated" "not underlined" "164" NA
63.044 1.909 12104806 "Exp.Trial" "MASKSCREEN_START_Rippe_K_DEG_U_327" 12 "[[316,393,384,384]]" 12 "Rippe" "black" "degradated" "underlined" "56" NA
66.416 2.166 12108178 "Exp.Trial" "MASKSCREEN_START_Plane_E_LET_N_414" 13 "[[403,480,384,384]]" 13 "Plane" "blue" "non-degradated" "not underlined" "277" 0
76.134 2.514 12117896 "Exp.Trial" "MASKSCREEN_START_Block_K_DEG_U_414" 14 "[[403,480,384,384]]" 14 "Block" "black" "degradated" "underlined" "60" NA
80.045 2.218 12121807 "Exp.Trial" "MASKSCREEN_START_Ruder_E_DEG_U_252" 15 "[[241,318,384,384]]" 15 "Ruder" "blue" "degradated" "underlined" "228" NA
87.098 2.442 12128860 "Exp.Trial" "MASKSCREEN_START_Wüste_E_LET_N_277" 16 "[[266,343,384,384]]" 16 "Wüste" "blue" "non-degradated" "not underlined" "261" 0
96.321 2.276 12138083 "Exp.Trial" "MASKSCREEN_START_Achse_E_DEG_N_252" 17 "[[241,318,384,384]]" 17 "Achse" "blue" "degradated" "not underlined" "172" 0
104.5 1.881 12146262 "Exp.Trial" "MASKSCREEN_START_Münze_K_LET_N_352" 18 "[[341,418,384,384]]" 18 "Münze" "black" "non-degradated" "not underlined" "94" NA
109.425 2.337 12151187 "Exp.Trial" "MASKSCREEN_START_Mango_E_LET_U_228" 19 "[[217,294,384,384]]" 19 "Mango" "blue" "non-degradated" "underlined" "286" NA
113.341 2.042 12155103 "Exp.Trial" "MASKSCREEN_START_Taube_K_DEG_U_290" 20 "[[279,356,384,384]]" 20 "Taube" "black" "degradated" "underlined" "41" NA
118.844 2.567 12160606 "Exp.Trial" "MASKSCREEN_START_Laken_E_LET_U_228" 21 "[[217,294,384,384]]" 21 "Laken" "blue" "non-degradated" "underlined" "298" NA
123.411 2.016 12165173 "Exp.Trial" "MASKSCREEN_START_Musik_E_DEG_N_438" 22 "[[427,504,384,384]]" 22 "Musik" "blue" "degradated" "not underlined" "200" NA
127.307 2.411 12169069 "Exp.Trial" "MASKSCREEN_START_Mensa_K_LET_N_277" 23 "[[266,343,384,384]]" 23 "Mensa" "black" "non-degradated" "not underlined" "83" NA
131.603 3.344 12173365 "Exp.Trial" "MASKSCREEN_START_Kunde_K_DEG_N_228" 24 "[[217,294,384,384]]" 24 "Kunde" "black" "degradated" "not underlined" "20" NA
136.848 2.992 12178610 "Exp.Trial" "MASKSCREEN_START_Knabe_K_DEG_N_252" 25 "[[241,318,384,384]]" 25 "Knabe" "black" "degradated" "not underlined" "1" NA
141.741 1.977 12183503 "Exp.Trial" "MASKSCREEN_START_Alter_E_LET_U_228" 26 "[[217,294,384,384]]" 26 "Alter" "blue" "non-degradated" "underlined" "296" NA
147.423 2.697 12189185 "Exp.Trial" "MASKSCREEN_START_Porto_K_DEG_U_290" 27 "[[279,356,384,384]]" 27 "Porto" "black" "degradated" "underlined" "59" NA
152.082 2.905 12193844 "Exp.Trial" "MASKSCREEN_START_Buche_K_LET_U_339" 28 "[[328,405,384,384]]" 28 "Buche" "black" "non-degradated" "underlined" "122" NA
158.131 2.14 12199893 "Exp.Trial" "MASKSCREEN_START_Ritze_E_LET_U_228" 29 "[[217,294,384,384]]" 29 "Ritze" "blue" "non-degradated" "underlined" "318" NA
162.006 1.698 12203768 "Exp.Trial" "MASKSCREEN_START_Herde_E_DEG_U_277" 30 "[[266,343,384,384]]" 30 "Herde" "blue" "degradated" "underlined" "204" NA
165.332 2.478 12207094 "Exp.Trial" "MASKSCREEN_START_Logik_K_LET_U_389" 31 "[[378,455,384,384]]" 31 "Logik" "black" "non-degradated" "underlined" "144" NA
169.933 1.784 12211695 "Exp.Trial" "MASKSCREEN_START_Trupp_E_LET_N_240" 32 "[[229,306,384,384]]" 32 "Trupp" "blue" "non-degradated" "not underlined" "262" NA
174.849 2.63 12216611 "Exp.Trial" "MASKSCREEN_START_Tunke_K_DEG_N_252" 33 "[[241,318,384,384]]" 33 "Tunke" "black" "degradated" "not underlined" "30" NA
179.897 3.38 12221659 "Exp.Trial" "MASKSCREEN_START_Sehne_K_DEG_N_376" 34 "[[365,442,384,384]]" 34 "Sehne" "black" "degradated" "not underlined" "26" 0
189.529 2.161 12231291 "Exp.Trial" "MASKSCREEN_START_Onkel_K_DEG_N_228" 35 "[[217,294,384,384]]" 35 "Onkel" "black" "degradated" "not underlined" "35" NA
195.41 1.931 12237172 "Exp.Trial" "MASKSCREEN_START_Messe_E_LET_U_240" 36 "[[229,306,384,384]]" 36 "Messe" "blue" "non-degradated" "underlined" "310" NA
199.193 1.919 12240955 "Exp.Trial" "MASKSCREEN_START_Armee_E_LET_U_290" 37 "[[279,356,384,384]]" 37 "Armee" "blue" "non-degradated" "underlined" "284" 0
207.757 2.399 12249519 "Exp.Trial" "MASKSCREEN_START_Panda_K_DEG_N_265" 38 "[[254,331,384,384]]" 38 "Panda" "black" "degradated" "not underlined" "31" NA
211.98 2.468 12253742 "Exp.Trial" "MASKSCREEN_START_Obhut_K_DEG_N_389" 39 "[[378,455,384,384]]" 39 "Obhut" "black" "degradated" "not underlined" "40" NA
216.068 2.93 12257830 "Exp.Trial" "MASKSCREEN_START_Mimik_E_LET_U_352" 40 "[[341,418,384,384]]" 40 "Mimik" "blue" "non-degradated" "underlined" "293" NA
220.642 3.168 12262404 "Exp.Trial" "MASKSCREEN_START_Hülle_E_LET_U_252" 41 "[[241,318,384,384]]" 41 "Hülle" "blue" "non-degradated" "underlined" "294" NA
225.236 1.589 12266998 "Exp.Trial" "MASKSCREEN_START_Rache_E_DEG_U_302" 42 "[[291,368,384,384]]" 42 "Rache" "blue" "degradated" "underlined" "223" NA
228.495 3.246 12270257 "Exp.Trial" "MASKSCREEN_START_Fauna_K_DEG_U_339" 43 "[[328,405,384,384]]" 43 "Fauna" "black" "degradated" "underlined" "68" NA
233.668 2.862 12275430 "Exp.Trial" "MASKSCREEN_START_Quint_E_LET_N_513" 44 "[[502,579,384,384]]" 44 "Quint" "blue" "non-degradated" "not underlined" "265" NA
239.647 2.479 12281409 "Exp.Trial" "MASKSCREEN_START_Villa_E_DEG_U_314" 45 "[[303,380,384,384]]" 45 "Villa" "blue" "degradated" "underlined" "240" NA
243.732 2.516 12285494 "Exp.Trial" "MASKSCREEN_START_Kehle_E_LET_U_277" 46 "[[266,343,384,384]]" 46 "Kehle" "blue" "non-degradated" "underlined" "319" NA
250.7 2.773 12292462 "Exp.Trial" "MASKSCREEN_START_Brust_E_LET_N_314" 47 "[[303,380,384,384]]" 47 "Brust" "blue" "non-degradated" "not underlined" "251" NA
256.542 2.319 12298304 "Exp.Trial" "MASKSCREEN_START_Feger_E_LET_U_240" 48 "[[229,306,384,384]]" 48 "Feger" "blue" "non-degradated" "underlined" "285" NA
261.979 1.843 12303741 "Exp.Trial" "MASKSCREEN_START_Notiz_E_LET_N_302" 49 "[[291,368,384,384]]" 49 "Notiz" "blue" "non-degradated" "not underlined" "242" NA
267.999 1.725 12309761 "Exp.Trial" "MASKSCREEN_START_Motor_K_LET_N_252" 50 "[[241,318,384,384]]" 50 "Motor" "black" "non-degradated" "not underlined" "89" NA
273.462 3.111 12315224 "Exp.Trial" "MASKSCREEN_START_Beuge_K_DEG_U_426" 51 "[[415,492,384,384]]" 51 "Beuge" "black" "degradated" "underlined" "73" NA
278.26 2.161 12320022 "Exp.Trial" "MASKSCREEN_START_Mappe_K_DEG_N_252" 52 "[[241,318,384,384]]" 52 "Mappe" "black" "degradated" "not underlined" "32" 0
289.746 1.874 12331508 "Exp.Trial" "MASKSCREEN_START_Weihe_E_LET_N_401" 53 "[[390,467,384,384]]" 53 "Weihe" "blue" "non-degradated" "not underlined" "264" 0
300.699 2.118 12342461 "Exp.Trial" "MASKSCREEN_START_Kiste_E_DEG_N_401" 54 "[[390,467,384,384]]" 54 "Kiste" "blue" "degradated" "not underlined" "187" NA
304.192 2.234 12345954 "Exp.Trial" "MASKSCREEN_START_Fehde_E_DEG_N_252" 55 "[[241,318,384,384]]" 55 "Fehde" "blue" "degradated" "not underlined" "176" NA
311.433 2.17 12353195 "Exp.Trial" "MASKSCREEN_START_Getön_E_DEG_N_265" 56 "[[254,331,384,384]]" 56 "Getön" "blue" "degradated" "not underlined" "175" NA
316.637 1.647 12358399 "Exp.Trial" "MASKSCREEN_START_Feder_E_DEG_U_314" 57 "[[303,380,384,384]]" 57 "Feder" "blue" "degradated" "underlined" "231" NA
322.712 1.914 12364474 "Exp.Trial" "MASKSCREEN_START_Blatt_K_LET_N_228" 58 "[[217,294,384,384]]" 58 "Blatt" "black" "non-degradated" "not underlined" "115" NA
328.785 2.062 12370547 "Exp.Trial" "MASKSCREEN_START_Rinde_K_LET_U_314" 59 "[[303,380,384,384]]" 59 "Rinde" "black" "non-degradated" "underlined" "148" NA
333.784 2.849 12375546 "Exp.Trial" "MASKSCREEN_START_König_E_DEG_N_550" 60 "[[539,616,384,384]]" 60 "König" "blue" "degradated" "not underlined" "178" NA
338.758 2.47 12380520 "Exp.Trial" "MASKSCREEN_START_Nagel_K_DEG_U_376" 61 "[[365,442,384,384]]" 61 "Nagel" "black" "degradated" "underlined" "65" NA
344.684 3.251 12386446 "Exp.Trial" "MASKSCREEN_START_Sigma_E_DEG_U_302" 62 "[[291,368,384,384]]" 62 "Sigma" "blue" "degradated" "underlined" "234" NA
349.63 2.98 12391392 "Exp.Trial" "MASKSCREEN_START_Votum_E_LET_U_265" 63 "[[254,331,384,384]]" 63 "Votum" "blue" "non-degradated" "underlined" "317" NA
355.458 1.954 12397220 "Exp.Trial" "MASKSCREEN_START_Pedal_E_DEG_U_314" 64 "[[303,380,384,384]]" 64 "Pedal" "blue" "degradated" "underlined" "214" NA
359.421 2.642 12401183 "Exp.Trial" "MASKSCREEN_START_Ungar_K_LET_N_327" 65 "[[316,393,384,384]]" 65 "Ungar" "black" "non-degradated" "not underlined" "95" NA
363.657 2.618 12405419 "Exp.Trial" "MASKSCREEN_START_Etage_E_LET_N_228" 66 "[[217,294,384,384]]" 66 "Etage" "blue" "non-degradated" "not underlined" "260" NA
369.552 1.745 12411314 "Exp.Trial" "MASKSCREEN_START_Falle_E_LET_N_339" 67 "[[328,405,384,384]]" 67 "Falle" "blue" "non-degradated" "not underlined" "244" 0
376.05 1.922 12417812 "Exp.Trial" "MASKSCREEN_START_Delta_K_LET_U_302" 68 "[[291,368,384,384]]" 68 "Delta" "black" "non-degradated" "underlined" "131" NA
381.281 2.552 12423043 "Exp.Trial" "MASKSCREEN_START_Prinz_E_DEG_N_265" 69 "[[254,331,384,384]]" 69 "Prinz" "blue" "degradated" "not underlined" "166" 0
389.798 2.991 12431560 "Exp.Trial" "MASKSCREEN_START_Zinke_E_DEG_N_240" 70 "[[229,306,384,384]]" 70 "Zinke" "blue" "degradated" "not underlined" "168" NA
394.657 2.97 12436419 "Exp.Trial" "MASKSCREEN_START_Orbit_E_LET_U_228" 71 "[[217,294,384,384]]" 71 "Orbit" "blue" "non-degradated" "underlined" "287" NA
400.167 3.265 12441929 "Exp.Trial" "MASKSCREEN_START_Werft_K_LET_N_376" 72 "[[365,442,384,384]]" 72 "Werft" "black" "non-degradated" "not underlined" "87" NA
405.192 2.309 12446954 "Exp.Trial" "MASKSCREEN_START_Möbel_E_DEG_U_290" 73 "[[279,356,384,384]]" 73 "Möbel" "blue" "degradated" "underlined" "226" NA
410.083 2.657 12451845 "Exp.Trial" "MASKSCREEN_START_Quart_K_LET_U_414" 74 "[[403,480,384,384]]" 74 "Quart" "black" "non-degradated" "underlined" "146" NA
415.335 3.477 12457097 "Exp.Trial" "MASKSCREEN_START_Sense_K_DEG_U_252" 75 "[[241,318,384,384]]" 75 "Sense" "black" "degradated" "underlined" "44" NA
421.336 1.941 12463098 "Exp.Trial" "MASKSCREEN_START_Aktie_E_LET_N_265" 76 "[[254,331,384,384]]" 76 "Aktie" "blue" "non-degradated" "not underlined" "248" NA
427.384 2.508 12469146 "Exp.Trial" "MASKSCREEN_START_Zucht_K_LET_N_314" 77 "[[303,380,384,384]]" 77 "Zucht" "black" "non-degradated" "not underlined" "111" NA
431.581 2.404 12473343 "Exp.Trial" "MASKSCREEN_START_Bürde_E_DEG_U_290" 78 "[[279,356,384,384]]" 78 "Bürde" "blue" "degradated" "underlined" "238" NA
437.354 2.111 12479116 "Exp.Trial" "MASKSCREEN_START_Beton_K_LET_U_277" 79 "[[266,343,384,384]]" 79 "Beton" "black" "non-degradated" "underlined" "125" NA
442.645 2.192 12484407 "Exp.Trial" "MASKSCREEN_START_Müsli_E_DEG_U_426" 80 "[[415,492,384,384]]" 80 "Müsli" "blue" "degradated" "underlined" "210" NA
446.762 1.978 12488524 "Exp.Trial" "MASKSCREEN_START_These_K_DEG_U_376" 81 "[[365,442,384,384]]" 81 "These" "black" "degradated" "underlined" "53" NA
450.246 2.091 12492008 "Exp.Trial" "MASKSCREEN_START_Stube_E_LET_N_240" 82 "[[229,306,384,384]]" 82 "Stube" "blue" "non-degradated" "not underlined" "273" NA
455.277 2.083 12497039 "Exp.Trial" "MASKSCREEN_START_Kater_E_LET_N_277" 83 "[[266,343,384,384]]" 83 "Kater" "blue" "non-degradated" "not underlined" "252" 0
462.998 1.522 12504760 "Exp.Trial" "MASKSCREEN_START_Enkel_E_DEG_U_277" 84 "[[266,343,384,384]]" 84 "Enkel" "blue" "degradated" "underlined" "205" NA
466.158 1.672 12507920 "Exp.Trial" "MASKSCREEN_START_Reuse_E_LET_U_327" 85 "[[316,393,384,384]]" 85 "Reuse" "blue" "non-degradated" "underlined" "315" NA
469.423 2.939 12511185 "Exp.Trial" "MASKSCREEN_START_Tisch_K_DEG_U_488" 86 "[[477,554,384,384]]" 86 "Tisch" "black" "degradated" "underlined" "62" NA
474.049 2.701 12515811 "Exp.Trial" "MASKSCREEN_START_Erlös_K_DEG_U_476" 87 "[[465,542,384,384]]" 87 "Erlös" "black" "degradated" "underlined" "47" NA
478.339 2.296 12520101 "Exp.Trial" "MASKSCREEN_START_Bitte_E_DEG_U_252" 88 "[[241,318,384,384]]" 88 "Bitte" "blue" "degradated" "underlined" "235" NA
482.135 2.285 12523897 "Exp.Trial" "MASKSCREEN_START_Nonne_E_DEG_N_265" 89 "[[254,331,384,384]]" 89 "Nonne" "blue" "degradated" "not underlined" "198" NA
486.145 2.006 12527907 "Exp.Trial" "MASKSCREEN_START_Decke_K_LET_N_414" 90 "[[403,480,384,384]]" 90 "Decke" "black" "non-degradated" "not underlined" "86" NA
491.695 1.526 12533457 "Exp.Trial" "MASKSCREEN_START_Knast_E_LET_N_327" 91 "[[316,393,384,384]]" 91 "Knast" "blue" "non-degradated" "not underlined" "278" 0
499.534 2.013 12541296 "Exp.Trial" "MASKSCREEN_START_Anbau_E_LET_N_302" 92 "[[291,368,384,384]]" 92 "Anbau" "blue" "non-degradated" "not underlined" "250" NA
504.925 2.159 12546687 "Exp.Trial" "MASKSCREEN_START_Raupe_K_LET_U_339" 93 "[[328,405,384,384]]" 93 "Raupe" "black" "non-degradated" "underlined" "153" NA
511.094 1.693 12552856 "Exp.Trial" "MASKSCREEN_START_Anruf_K_LET_N_376" 94 "[[365,442,384,384]]" 94 "Anruf" "black" "non-degradated" "not underlined" "91" 0
519.13 2.893 12560892 "Exp.Trial" "MASKSCREEN_START_Elite_E_DEG_U_290" 95 "[[279,356,384,384]]" 95 "Elite" "blue" "degradated" "underlined" "233" NA
523.453 2.444 12565215 "Exp.Trial" "MASKSCREEN_START_Tolle_E_LET_U_513" 96 "[[502,579,384,384]]" 96 "Tolle" "blue" "non-degradated" "underlined" "300" NA
528.716 1.828 12570478 "Exp.Trial" "MASKSCREEN_START_Sitte_K_LET_U_290" 97 "[[279,356,384,384]]" 97 "Sitte" "black" "non-degradated" "underlined" "151" NA
532.282 3.375 12574044 "Exp.Trial" "MASKSCREEN_START_Waage_E_LET_N_302" 98 "[[291,368,384,384]]" 98 "Waage" "blue" "non-degradated" "not underlined" "255" NA
538.189 2.223 12579951 "Exp.Trial" "MASKSCREEN_START_Waffe_E_DEG_N_389" 99 "[[378,455,384,384]]" 99 "Waffe" "blue" "degradated" "not underlined" "174" NA
542.008 2.774 12583770 "Exp.Trial" "MASKSCREEN_START_Gicht_K_DEG_N_401" 100 "[[390,467,384,384]]" 100 "Gicht" "black" "degradated" "not underlined" "33" NA
547.376 2.752 12589138 "Exp.Trial" "MASKSCREEN_START_Götze_E_DEG_N_488" 101 "[[477,554,384,384]]" 101 "Götze" "blue" "degradated" "not underlined" "179" NA
551.722 2.246 12593484 "Exp.Trial" "MASKSCREEN_START_Treff_E_LET_N_302" 102 "[[291,368,384,384]]" 102 "Treff" "blue" "non-degradated" "not underlined" "270" NA
556.941 2.639 12598703 "Exp.Trial" "MASKSCREEN_START_Depot_K_LET_U_252" 103 "[[241,318,384,384]]" 103 "Depot" "black" "non-degradated" "underlined" "135" NA
561.258 3.095 12603020 "Exp.Trial" "MASKSCREEN_START_Drill_K_LET_U_339" 104 "[[328,405,384,384]]" 104 "Drill" "black" "non-degradated" "underlined" "128" NA
566.455 3.462 12608217 "Exp.Trial" "MASKSCREEN_START_Abbau_E_LET_U_376" 105 "[[365,442,384,384]]" 105 "Abbau" "blue" "non-degradated" "underlined" "302" NA
571.513 3.374 12613275 "Exp.Trial" "MASKSCREEN_START_Ahorn_E_DEG_N_228" 106 "[[217,294,384,384]]" 106 "Ahorn" "blue" "degradated" "not underlined" "193" NA
576.738 2.131 12618500 "Exp.Trial" "MASKSCREEN_START_Gebet_K_LET_U_339" 107 "[[328,405,384,384]]" 107 "Gebet" "black" "non-degradated" "underlined" "156" NA
580.654 4.167 12622416 "Exp.Trial" "MASKSCREEN_START_Garde_K_DEG_N_364" 108 "[[353,430,384,384]]" 108 "Garde" "black" "degradated" "not underlined" "39" NA
587.585 2.327 12629347 "Exp.Trial" "MASKSCREEN_START_Major_E_DEG_N_252" 109 "[[241,318,384,384]]" 109 "Major" "blue" "degradated" "not underlined" "195" 0
596.579 2.417 12638341 "Exp.Trial" "MASKSCREEN_START_Pulle_K_DEG_U_339" 110 "[[328,405,384,384]]" 110 "Pulle" "black" "degradated" "underlined" "48" NA
601.943 2.507 12643705 "Exp.Trial" "MASKSCREEN_START_Karat_K_DEG_N_339" 111 "[[328,405,384,384]]" 111 "Karat" "black" "degradated" "not underlined" "37" NA
607.91 2.959 12649672 "Exp.Trial" "MASKSCREEN_START_Strom_E_DEG_N_240" 112 "[[229,306,384,384]]" 112 "Strom" "blue" "degradated" "not underlined" "163" NA
612.584 2.726 12654346 "Exp.Trial" "MASKSCREEN_START_Beleg_E_DEG_U_327" 113 "[[316,393,384,384]]" 113 "Beleg" "blue" "degradated" "underlined" "212" NA
618.498 2.572 12660260 "Exp.Trial" "MASKSCREEN_START_Zitat_E_LET_U_376" 114 "[[365,442,384,384]]" 114 "Zitat" "blue" "non-degradated" "underlined" "311" NA
622.654 3.878 12664416 "Exp.Trial" "MASKSCREEN_START_Kluft_E_LET_N_277" 115 "[[266,343,384,384]]" 115 "Kluft" "blue" "non-degradated" "not underlined" "258" NA
628.184 2.473 12669946 "Exp.Trial" "MASKSCREEN_START_Bauer_E_DEG_N_389" 116 "[[378,455,384,384]]" 116 "Bauer" "blue" "degradated" "not underlined" "196" NA
632.287 1.503 12674049 "Exp.Trial" "MASKSCREEN_START_Seide_K_LET_U_339" 117 "[[328,405,384,384]]" 117 "Seide" "black" "non-degradated" "underlined" "152" NA
635.527 2.296 12677289 "Exp.Trial" "MASKSCREEN_START_Dämon_E_DEG_N_265" 118 "[[254,331,384,384]]" 118 "Dämon" "blue" "degradated" "not underlined" "192" NA
639.45 2.515 12681212 "Exp.Trial" "MASKSCREEN_START_Paket_K_DEG_U_352" 119 "[[341,418,384,384]]" 119 "Paket" "black" "degradated" "underlined" "77" NA
643.572 2.332 12685334 "Exp.Trial" "MASKSCREEN_START_Bühne_K_LET_N_488" 120 "[[477,554,384,384]]" 120 "Bühne" "black" "non-degradated" "not underlined" "101" NA
647.84 3.485 12689602 "Exp.Trial" "MASKSCREEN_START_Korps_E_LET_U_550" 121 "[[539,616,384,384]]" 121 "Korps" "blue" "non-degradated" "underlined" "309" 0
716.313 2.32 12758075 "Exp.Trial" "MASKSCREEN_START_Zeche_K_LET_N_277" 122 "[[266,343,384,384]]" 122 "Zeche" "black" "non-degradated" "not underlined" "82" NA
720.243 2.109 12762005 "Exp.Trial" "MASKSCREEN_START_Druck_K_DEG_U_252" 123 "[[241,318,384,384]]" 123 "Druck" "black" "degradated" "underlined" "75" NA
723.929 1.939 12765691 "Exp.Trial" "MASKSCREEN_START_Kokon_K_DEG_U_228" 124 "[[217,294,384,384]]" 124 "Kokon" "black" "degradated" "underlined" "52" NA
727.532 2.36 12769294 "Exp.Trial" "MASKSCREEN_START_Laich_K_LET_N_327" 125 "[[316,393,384,384]]" 125 "Laich" "black" "non-degradated" "not underlined" "113" 0
736.798 2.39 12778560 "Exp.Trial" "MASKSCREEN_START_Wuchs_K_LET_N_228" 126 "[[217,294,384,384]]" 126 "Wuchs" "black" "non-degradated" "not underlined" "85" NA
740.761 1.831 12782523 "Exp.Trial" "MASKSCREEN_START_Twist_K_DEG_U_314" 127 "[[303,380,384,384]]" 127 "Twist" "black" "degradated" "underlined" "79" NA
744.22 2.397 12785982 "Exp.Trial" "MASKSCREEN_START_Radio_K_LET_N_352" 128 "[[341,418,384,384]]" 128 "Radio" "black" "non-degradated" "not underlined" "109" NA
748.375 2.285 12790137 "Exp.Trial" "MASKSCREEN_START_Geist_K_LET_U_277" 129 "[[266,343,384,384]]" 129 "Geist" "black" "non-degradated" "underlined" "134" NA
752.293 2.102 12794055 "Exp.Trial" "MASKSCREEN_START_Ärmel_K_DEG_U_376" 130 "[[365,442,384,384]]" 130 "Ärmel" "black" "degradated" "underlined" "76" NA
756.315 2.919 12798077 "Exp.Trial" "MASKSCREEN_START_Liege_E_LET_N_215" 131 "[[204,281,384,384]]" 131 "Liege" "blue" "non-degradated" "not underlined" "280" NA
760.79 2.161 12802552 "Exp.Trial" "MASKSCREEN_START_Abruf_K_DEG_U_389" 132 "[[378,455,384,384]]" 132 "Abruf" "black" "degradated" "underlined" "71" 0
768.761 1.722 12810523 "Exp.Trial" "MASKSCREEN_START_Ikone_E_LET_N_314" 133 "[[303,380,384,384]]" 133 "Ikone" "blue" "non-degradated" "not underlined" "267" 0
776.761 2.226 12818523 "Exp.Trial" "MASKSCREEN_START_Summe_K_LET_U_265" 134 "[[254,331,384,384]]" 134 "Summe" "black" "non-degradated" "underlined" "123" NA
780.677 2.129 12822439 "Exp.Trial" "MASKSCREEN_START_Kajak_E_DEG_N_314" 135 "[[303,380,384,384]]" 135 "Kajak" "blue" "degradated" "not underlined" "190" NA
784.454 1.741 12826216 "Exp.Trial" "MASKSCREEN_START_Otter_K_LET_N_290" 136 "[[279,356,384,384]]" 136 "Otter" "black" "non-degradated" "not underlined" "112" NA
787.762 2.51 12829524 "Exp.Trial" "MASKSCREEN_START_Kelch_K_DEG_N_327" 137 "[[316,393,384,384]]" 137 "Kelch" "black" "degradated" "not underlined" "8" NA
791.875 2.154 12833637 "Exp.Trial" "MASKSCREEN_START_Motte_K_DEG_U_252" 138 "[[241,318,384,384]]" 138 "Motte" "black" "degradated" "underlined" "63" NA
795.594 3.283 12837356 "Exp.Trial" "MASKSCREEN_START_Hüter_K_DEG_U_215" 139 "[[204,281,384,384]]" 139 "Hüter" "black" "degradated" "underlined" "66" NA
800.526 2.652 12842288 "Exp.Trial" "MASKSCREEN_START_Büste_K_DEG_N_302" 140 "[[291,368,384,384]]" 140 "Büste" "black" "degradated" "not underlined" "25" NA
804.815 2.057 12846577 "Exp.Trial" "MASKSCREEN_START_Fülle_E_LET_N_290" 141 "[[279,356,384,384]]" 141 "Fülle" "blue" "non-degradated" "not underlined" "271" NA
809.01 2.709 12850772 "Exp.Trial" "MASKSCREEN_START_Blech_K_DEG_N_277" 142 "[[266,343,384,384]]" 142 "Blech" "black" "degradated" "not underlined" "36" NA
813.357 3.625 12855119 "Exp.Trial" "MASKSCREEN_START_Dekan_K_DEG_N_265" 143 "[[254,331,384,384]]" 143 "Dekan" "black" "degradated" "not underlined" "11" 0
822.015 2.465 12863777 "Exp.Trial" "MASKSCREEN_START_Regie_K_LET_N_327" 144 "[[316,393,384,384]]" 144 "Regie" "black" "non-degradated" "not underlined" "116" NA
826.21 2.161 12867972 "Exp.Trial" "MASKSCREEN_START_Radar_E_LET_U_228" 145 "[[217,294,384,384]]" 145 "Radar" "blue" "non-degradated" "underlined" "306" NA
830.126 2.006 12871888 "Exp.Trial" "MASKSCREEN_START_Krebs_K_DEG_N_228" 146 "[[217,294,384,384]]" 146 "Krebs" "black" "degradated" "not underlined" "29" NA
833.823 1.797 12875585 "Exp.Trial" "MASKSCREEN_START_Amsel_K_LET_U_240" 147 "[[229,306,384,384]]" 147 "Amsel" "black" "non-degradated" "underlined" "137" 0
874.429 1.914 12916191 "Exp.Trial" "MASKSCREEN_START_Pirat_K_LET_U_215" 148 "[[204,281,384,384]]" 148 "Pirat" "black" "non-degradated" "underlined" "133" NA
878.015 2.328 12919777 "Exp.Trial" "MASKSCREEN_START_Nudel_K_LET_U_426" 149 "[[415,492,384,384]]" 149 "Nudel" "black" "non-degradated" "underlined" "154" NA
882.079 2.521 12923841 "Exp.Trial" "MASKSCREEN_START_Matte_K_LET_U_240" 150 "[[229,306,384,384]]" 150 "Matte" "black" "non-degradated" "underlined" "143" NA
886.187 1.705 12927949 "Exp.Trial" "MASKSCREEN_START_Lücke_K_DEG_U_327" 151 "[[316,393,384,384]]" 151 "Lücke" "black" "degradated" "underlined" "80" NA
889.612 2.253 12931374 "Exp.Trial" "MASKSCREEN_START_Säule_K_LET_U_302" 152 "[[291,368,384,384]]" 152 "Säule" "black" "non-degradated" "underlined" "126" NA
893.437 3.866 12935199 "Exp.Trial" "MASKSCREEN_START_Kongo_K_DEG_N_228" 153 "[[217,294,384,384]]" 153 "Kongo" "black" "degradated" "not underlined" "15" NA
898.758 2.634 12940520 "Exp.Trial" "MASKSCREEN_START_Masse_K_DEG_U_228" 154 "[[217,294,384,384]]" 154 "Masse" "black" "degradated" "underlined" "50" NA
903.107 3.341 12944869 "Exp.Trial" "MASKSCREEN_START_Atoll_K_LET_N_513" 155 "[[502,579,384,384]]" 155 "Atoll" "black" "non-degradated" "not underlined" "98" NA
908.126 2.128 12949888 "Exp.Trial" "MASKSCREEN_START_Sünde_E_DEG_U_265" 156 "[[254,331,384,384]]" 156 "Sünde" "blue" "degradated" "underlined" "207" NA
911.795 2.17 12953557 "Exp.Trial" "MASKSCREEN_START_Pizza_E_DEG_U_277" 157 "[[266,343,384,384]]" 157 "Pizza" "blue" "degradated" "underlined" "211" 0
919.788 2.282 12961550 "Exp.Trial" "MASKSCREEN_START_Lager_K_LET_U_228" 158 "[[217,294,384,384]]" 158 "Lager" "black" "non-degradated" "underlined" "145" NA
924.329 1.72 12966091 "Exp.Trial" "MASKSCREEN_START_Eifer_K_LET_N_376" 159 "[[365,442,384,384]]" 159 "Eifer" "black" "non-degradated" "not underlined" "84" NA
927.701 2.437 12969463 "Exp.Trial" "MASKSCREEN_START_Zicke_E_DEG_N_252" 160 "[[241,318,384,384]]" 160 "Zicke" "blue" "degradated" "not underlined" "183" NA
931.739 1.914 12973501 "Exp.Trial" "MASKSCREEN_START_Party_E_DEG_N_376" 161 "[[365,442,384,384]]" 161 "Party" "blue" "degradated" "not underlined" "184" NA
935.256 2.449 12977018 "Exp.Trial" "MASKSCREEN_START_Sorte_E_LET_U_327" 162 "[[316,393,384,384]]" 162 "Sorte" "blue" "non-degradated" "underlined" "299" 0
946.341 2.311 12988103 "Exp.Trial" "MASKSCREEN_START_Zwang_E_LET_N_352" 163 "[[341,418,384,384]]" 163 "Zwang" "blue" "non-degradated" "not underlined" "272" NA
951.778 3.009 12993540 "Exp.Trial" "MASKSCREEN_START_Psalm_K_LET_N_215" 164 "[[204,281,384,384]]" 164 "Psalm" "black" "non-degradated" "not underlined" "118" NA
956.431 1.678 12998193 "Exp.Trial" "MASKSCREEN_START_Yacht_K_DEG_N_215" 165 "[[204,281,384,384]]" 165 "Yacht" "black" "degradated" "not underlined" "28" NA
959.493 3.057 13001255 "Exp.Trial" "MASKSCREEN_START_Beize_K_DEG_U_265" 166 "[[254,331,384,384]]" 166 "Beize" "black" "degradated" "underlined" "58" NA
965.001 1.909 13006763 "Exp.Trial" "MASKSCREEN_START_Runde_K_LET_N_228" 167 "[[217,294,384,384]]" 167 "Runde" "black" "non-degradated" "not underlined" "108" NA
968.401 2.168 13010163 "Exp.Trial" "MASKSCREEN_START_Felge_K_LET_U_401" 168 "[[390,467,384,384]]" 168 "Felge" "black" "non-degradated" "underlined" "160" 0
976.798 1.934 13018560 "Exp.Trial" "MASKSCREEN_START_Raser_K_DEG_N_290" 169 "[[279,356,384,384]]" 169 "Raser" "black" "degradated" "not underlined" "3" NA
980.298 1.794 13022060 "Exp.Trial" "MASKSCREEN_START_Szene_K_DEG_N_240" 170 "[[229,306,384,384]]" 170 "Szene" "black" "degradated" "not underlined" "23" NA
983.728 1.92 13025490 "Exp.Trial" "MASKSCREEN_START_Polka_K_LET_N_525" 171 "[[514,591,384,384]]" 171 "Polka" "black" "non-degradated" "not underlined" "102" 0
991.017 2.187 13032779 "Exp.Trial" "MASKSCREEN_START_Troll_K_DEG_U_426" 172 "[[415,492,384,384]]" 172 "Troll" "black" "degradated" "underlined" "57" NA
994.853 2.485 13036615 "Exp.Trial" "MASKSCREEN_START_Daune_K_LET_N_327" 173 "[[316,393,384,384]]" 173 "Daune" "black" "non-degradated" "not underlined" "110" NA
998.937 1.728 13040699 "Exp.Trial" "MASKSCREEN_START_Regal_K_DEG_N_228" 174 "[[217,294,384,384]]" 174 "Regal" "black" "degradated" "not underlined" "10" NA
1002.395 1.617 13044157 "Exp.Trial" "MASKSCREEN_START_Minze_E_LET_U_252" 175 "[[241,318,384,384]]" 175 "Minze" "blue" "non-degradated" "underlined" "303" NA
1005.607 2.906 13047369 "Exp.Trial" "MASKSCREEN_START_Wanst_E_LET_U_476" 176 "[[465,542,384,384]]" 176 "Wanst" "blue" "non-degradated" "underlined" "297" NA
1010.041 1.795 13051803 "Exp.Trial" "MASKSCREEN_START_Stern_E_DEG_U_228" 177 "[[217,294,384,384]]" 177 "Stern" "blue" "degradated" "underlined" "237" NA
1013.494 2.442 13055256 "Exp.Trial" "MASKSCREEN_START_Eimer_E_DEG_U_538" 178 "[[527,604,384,384]]" 178 "Eimer" "blue" "degradated" "underlined" "216" 0
1022.57 1.787 13064332 "Exp.Trial" "MASKSCREEN_START_Klima_K_LET_U_252" 179 "[[241,318,384,384]]" 179 "Klima" "black" "non-degradated" "underlined" "141" NA
1025.967 3.36 13067729 "Exp.Trial" "MASKSCREEN_START_Zuzug_K_LET_N_327" 180 "[[316,393,384,384]]" 180 "Zuzug" "black" "non-degradated" "not underlined" "106" 0
1035.851 2.564 13077613 "Exp.Trial" "MASKSCREEN_START_Würze_E_LET_N_277" 181 "[[266,343,384,384]]" 181 "Würze" "blue" "non-degradated" "not underlined" "263" NA
1039.967 2.472 13081729 "Exp.Trial" "MASKSCREEN_START_Torte_K_LET_U_240" 182 "[[229,306,384,384]]" 182 "Torte" "black" "non-degradated" "underlined" "149" 0
1048.804 2.127 13090566 "Exp.Trial" "MASKSCREEN_START_Polio_K_LET_N_364" 183 "[[353,430,384,384]]" 183 "Polio" "black" "non-degradated" "not underlined" "103" 0
1055.581 2.52 13097343 "Exp.Trial" "MASKSCREEN_START_Heber_E_LET_U_525" 184 "[[514,591,384,384]]" 184 "Heber" "blue" "non-degradated" "underlined" "292" NA
1061.049 2.451 13102811 "Exp.Trial" "MASKSCREEN_START_Hecke_E_DEG_U_228" 185 "[[217,294,384,384]]" 185 "Hecke" "blue" "degradated" "underlined" "230" NA
1065.04 1.988 13106802 "Exp.Trial" "MASKSCREEN_START_Linse_E_DEG_N_215" 186 "[[204,281,384,384]]" 186 "Linse" "blue" "degradated" "not underlined" "162" 0
1072.615 2.78 13114377 "Exp.Trial" "MASKSCREEN_START_Zobel_K_LET_U_290" 187 "[[279,356,384,384]]" 187 "Zobel" "black" "non-degradated" "underlined" "158" NA
1076.903 3.313 13118665 "Exp.Trial" "MASKSCREEN_START_Dunst_K_LET_U_277" 188 "[[266,343,384,384]]" 188 "Dunst" "black" "non-degradated" "underlined" "150" NA
1081.868 3.385 13123630 "Exp.Trial" "MASKSCREEN_START_Markt_K_DEG_U_302" 189 "[[291,368,384,384]]" 189 "Markt" "black" "degradated" "underlined" "74" NA
1086.913 3.973 13128675 "Exp.Trial" "MASKSCREEN_START_Axiom_K_DEG_N_364" 190 "[[353,430,384,384]]" 190 "Axiom" "black" "degradated" "not underlined" "27" 1
1110.087 5.456 13151849 "Exp.Trial" "MASKSCREEN_START_Wange_E_LET_N_401" 191 "[[390,467,384,384]]" 191 "Wange" "blue" "non-degradated" "not underlined" "256" NA
1117.354 2.037 13159116 "Exp.Trial" "MASKSCREEN_START_Trott_E_DEG_N_339" 192 "[[328,405,384,384]]" 192 "Trott" "blue" "degradated" "not underlined" "194" NA
1121.093 2.467 13162855 "Exp.Trial" "MASKSCREEN_START_Nylon_K_LET_U_228" 193 "[[217,294,384,384]]" 193 "Nylon" "black" "non-degradated" "underlined" "139" NA
1125.668 2.645 13167430 "Exp.Trial" "MASKSCREEN_START_Gusto_E_DEG_U_476" 194 "[[465,542,384,384]]" 194 "Gusto" "blue" "degradated" "underlined" "220" NA
1130.108 4.812 13171870 "Exp.Trial" "MASKSCREEN_START_Sühne_K_DEG_N_748" 195 "[[737,814,384,384]]" 195 "Sühne" "black" "degradated" "not underlined" "18" NA
1136.659 2.242 13178421 "Exp.Trial" "MASKSCREEN_START_Lauge_E_DEG_U_240" 196 "[[229,306,384,384]]" 196 "Lauge" "blue" "degradated" "underlined" "236" NA
1140.563 2.103 13182325 "Exp.Trial" "MASKSCREEN_START_Reibe_E_LET_U_476" 197 "[[465,542,384,384]]" 197 "Reibe" "blue" "non-degradated" "underlined" "295" NA
1144.34 1.905 13186102 "Exp.Trial" "MASKSCREEN_START_Drama_E_LET_U_290" 198 "[[279,356,384,384]]" 198 "Drama" "blue" "non-degradated" "underlined" "314" NA
1147.833 2.275 13189595 "Exp.Trial" "MASKSCREEN_START_Basar_E_DEG_U_228" 199 "[[217,294,384,384]]" 199 "Basar" "blue" "degradated" "underlined" "203" NA
1151.678 1.625 13193440 "Exp.Trial" "MASKSCREEN_START_Belag_E_DEG_U_252" 200 "[[241,318,384,384]]" 200 "Belag" "blue" "degradated" "underlined" "218" NA
1154.968 2.065 13196730 "Exp.Trial" "MASKSCREEN_START_Plage_K_DEG_U_240" 201 "[[229,306,384,384]]" 201 "Plage" "black" "degradated" "underlined" "54" NA
1158.434 1.295 13200196 "Exp.Trial" "MASKSCREEN_START_Pilot_K_LET_U_265" 202 "[[254,331,384,384]]" 202 "Pilot" "black" "non-degradated" "underlined" "132" NA
1161.169 1.615 13202931 "Exp.Trial" "MASKSCREEN_START_Beule_E_LET_N_327" 203 "[[316,393,384,384]]" 203 "Beule" "blue" "non-degradated" "not underlined" "266" NA
1164.348 1.994 13206110 "Exp.Trial" "MASKSCREEN_START_Spreu_E_DEG_N_364" 204 "[[353,430,384,384]]" 204 "Spreu" "blue" "degradated" "not underlined" "161" NA
1167.766 2.253 13209528 "Exp.Trial" "MASKSCREEN_START_Blitz_K_LET_U_575" 205 "[[564,641,384,384]]" 205 "Blitz" "black" "non-degradated" "underlined" "121" NA
1171.697 2.362 13213459 "Exp.Trial" "MASKSCREEN_START_Thron_E_LET_U_203" 206 "[[192,269,384,384]]" 206 "Thron" "blue" "non-degradated" "underlined" "307" NA
1175.666 2.985 13217428 "Exp.Trial" "MASKSCREEN_START_Sumpf_E_DEG_N_252" 207 "[[241,318,384,384]]" 207 "Sumpf" "blue" "degradated" "not underlined" "182" NA
1180.275 1.64 13222037 "Exp.Trial" "MASKSCREEN_START_Wolle_K_LET_U_376" 208 "[[365,442,384,384]]" 208 "Wolle" "black" "non-degradated" "underlined" "159" NA
1183.335 3.847 13225097 "Exp.Trial" "MASKSCREEN_START_Buchs_K_DEG_N_426" 209 "[[415,492,384,384]]" 209 "Buchs" "black" "degradated" "not underlined" "5" NA
1188.577 2.572 13230339 "Exp.Trial" "MASKSCREEN_START_Manko_E_DEG_N_265" 210 "[[254,331,384,384]]" 210 "Manko" "blue" "degradated" "not underlined" "173" NA
1192.794 1.898 13234556 "Exp.Trial" "MASKSCREEN_START_Vogel_E_DEG_U_228" 211 "[[217,294,384,384]]" 211 "Vogel" "blue" "degradated" "underlined" "206" NA
1196.324 4.674 13238086 "Exp.Trial" "MASKSCREEN_START_Bande_E_DEG_U_364" 212 "[[353,430,384,384]]" 212 "Bande" "blue" "degradated" "underlined" "209" NA
1202.557 1.589 13244319 "Exp.Trial" "MASKSCREEN_START_Baske_K_DEG_U_228" 213 "[[217,294,384,384]]" 213 "Baske" "black" "degradated" "underlined" "78" NA
1205.519 2.842 13247281 "Exp.Trial" "MASKSCREEN_START_Zeile_K_LET_N_277" 214 "[[266,343,384,384]]" 214 "Zeile" "black" "non-degradated" "not underlined" "88" NA
1210.065 2.463 13251827 "Exp.Trial" "MASKSCREEN_START_Balte_E_DEG_U_265" 215 "[[254,331,384,384]]" 215 "Balte" "blue" "degradated" "underlined" "239" NA
1214.06 2.013 13255822 "Exp.Trial" "MASKSCREEN_START_Figur_E_DEG_U_364" 216 "[[353,430,384,384]]" 216 "Figur" "blue" "degradated" "underlined" "232" 0
1221.45 2.185 13263212 "Exp.Trial" "MASKSCREEN_START_Sippe_E_DEG_N_414" 217 "[[403,480,384,384]]" 217 "Sippe" "blue" "degradated" "not underlined" "188" NA
1225.374 1.817 13267136 "Exp.Trial" "MASKSCREEN_START_Datei_K_LET_U_277" 218 "[[266,343,384,384]]" 218 "Datei" "black" "non-degradated" "underlined" "140" NA
1228.772 3.014 13270534 "Exp.Trial" "MASKSCREEN_START_Quast_K_DEG_U_550" 219 "[[539,616,384,384]]" 219 "Quast" "black" "degradated" "underlined" "61" NA
1233.286 3.534 13275048 "Exp.Trial" "MASKSCREEN_START_Kolik_E_LET_N_302" 220 "[[291,368,384,384]]" 220 "Kolik" "blue" "non-degradated" "not underlined" "253" 0
1242.672 2.783 13284434 "Exp.Trial" "MASKSCREEN_START_Miliz_K_LET_N_290" 221 "[[279,356,384,384]]" 221 "Miliz" "black" "non-degradated" "not underlined" "120" NA
1246.868 1.569 13288630 "Exp.Trial" "MASKSCREEN_START_Natur_E_LET_N_265" 222 "[[254,331,384,384]]" 222 "Natur" "blue" "non-degradated" "not underlined" "246" NA
1249.807 1.593 13291569 "Exp.Trial" "MASKSCREEN_START_Beruf_K_DEG_N_314" 223 "[[303,380,384,384]]" 223 "Beruf" "black" "degradated" "not underlined" "17" NA
1254.362 2.191 13296124 "Exp.Trial" "MASKSCREEN_START_Gerät_K_LET_N_277" 224 "[[266,343,384,384]]" 224 "Gerät" "black" "non-degradated" "not underlined" "119" NA
1258.22 2.008 13299982 "Exp.Trial" "MASKSCREEN_START_Bombe_K_LET_U_265" 225 "[[254,331,384,384]]" 225 "Bombe" "black" "non-degradated" "underlined" "129" NA
1261.618 2.136 13303380 "Exp.Trial" "MASKSCREEN_START_Viola_E_DEG_U_302" 226 "[[291,368,384,384]]" 226 "Viola" "blue" "degradated" "underlined" "217" NA
1265.183 2.607 13306945 "Exp.Trial" "MASKSCREEN_START_Stola_K_LET_U_352" 227 "[[341,418,384,384]]" 227 "Stola" "black" "non-degradated" "underlined" "124" NA
1269.213 3.02 13310975 "Exp.Trial" "MASKSCREEN_START_Kuhle_K_DEG_U_277" 228 "[[266,343,384,384]]" 228 "Kuhle" "black" "degradated" "underlined" "45" NA
1273.821 2.433 13315583 "Exp.Trial" "MASKSCREEN_START_Seife_K_DEG_N_290" 229 "[[279,356,384,384]]" 229 "Seife" "black" "degradated" "not underlined" "6" NA
1277.617 2.684 13319379 "Exp.Trial" "MASKSCREEN_START_Pfand_E_DEG_U_414" 230 "[[403,480,384,384]]" 230 "Pfand" "blue" "degradated" "underlined" "201" NA
1281.672 3.324 13323434 "Exp.Trial" "MASKSCREEN_START_Heide_E_DEG_N_376" 231 "[[365,442,384,384]]" 231 "Heide" "blue" "degradated" "not underlined" "191" NA
1286.385 1.728 13328147 "Exp.Trial" "MASKSCREEN_START_Zecke_E_DEG_N_240" 232 "[[229,306,384,384]]" 232 "Zecke" "blue" "degradated" "not underlined" "170" NA
1289.486 2.347 13331248 "Exp.Trial" "MASKSCREEN_START_Sturz_E_DEG_U_228" 233 "[[217,294,384,384]]" 233 "Sturz" "blue" "degradated" "underlined" "219" NA
1293.236 2.433 13334998 "Exp.Trial" "MASKSCREEN_START_Agent_E_LET_U_401" 234 "[[390,467,384,384]]" 234 "Agent" "blue" "non-degradated" "underlined" "291" NA
1297.246 2.214 13339008 "Exp.Trial" "MASKSCREEN_START_Äther_K_DEG_N_451" 235 "[[440,517,384,384]]" 235 "Äther" "black" "degradated" "not underlined" "34" 0
1306.061 2.189 13347823 "Exp.Trial" "MASKSCREEN_START_Miene_K_LET_U_265" 236 "[[254,331,384,384]]" 236 "Miene" "black" "non-degradated" "underlined" "155" 0
1313.755 2.685 13355517 "Exp.Trial" "MASKSCREEN_START_Feile_E_DEG_N_302" 237 "[[291,368,384,384]]" 237 "Feile" "blue" "degradated" "not underlined" "185" NA
1317.857 3.198 13359619 "Exp.Trial" "MASKSCREEN_START_Opfer_K_LET_U_339" 238 "[[328,405,384,384]]" 238 "Opfer" "black" "non-degradated" "underlined" "157" NA
1322.683 2.681 13364445 "Exp.Trial" "MASKSCREEN_START_Fjord_E_LET_U_414" 239 "[[403,480,384,384]]" 239 "Fjord" "blue" "non-degradated" "underlined" "283" NA
1327.011 2.271 13368773 "Exp.Trial" "MASKSCREEN_START_Moder_K_LET_N_265" 240 "[[254,331,384,384]]" 240 "Moder" "black" "non-degradated" "not underlined" "97" NA
1330.841 2.095 13372603 "Exp.Trial" "MASKSCREEN_START_Pfahl_E_DEG_N_240" 241 "[[229,306,384,384]]" 241 "Pfahl" "blue" "degradated" "not underlined" "189" NA
1334.327 2.816 13376089 "Exp.Trial" "MASKSCREEN_START_Bowle_E_LET_N_215" 242 "[[204,281,384,384]]" 242 "Bowle" "blue" "non-degradated" "not underlined" "269" 0
1343.753 3.172 13385515 "Exp.Trial" "MASKSCREEN_START_Tante_E_DEG_U_265" 243 "[[254,331,384,384]]" 243 "Tante" "blue" "degradated" "underlined" "215" NA
1348.546 1.845 13390308 "Exp.Trial" "MASKSCREEN_START_Kleid_E_LET_U_228" 244 "[[217,294,384,384]]" 244 "Kleid" "blue" "non-degradated" "underlined" "281" NA
1351.792 1.982 13393554 "Exp.Trial" "MASKSCREEN_START_Boxer_E_LET_U_314" 245 "[[303,380,384,384]]" 245 "Boxer" "blue" "non-degradated" "underlined" "313" NA
1355.19 2.489 13396952 "Exp.Trial" "MASKSCREEN_START_Juwel_K_LET_U_426" 246 "[[415,492,384,384]]" 246 "Juwel" "black" "non-degradated" "underlined" "142" NA
1359.074 3.298 13400836 "Exp.Trial" "MASKSCREEN_START_Chrom_E_DEG_U_277" 247 "[[266,343,384,384]]" 247 "Chrom" "blue" "degradated" "underlined" "213" NA
1363.761 3.4 13405523 "Exp.Trial" "MASKSCREEN_START_Madam_K_DEG_N_252" 248 "[[241,318,384,384]]" 248 "Madam" "black" "degradated" "not underlined" "4" NA
1368.613 4.182 13410375 "Exp.Trial" "MASKSCREEN_START_Leere_E_LET_U_600" 249 "[[589,666,384,384]]" 249 "Leere" "blue" "non-degradated" "underlined" "290" NA
1374.175 3.648 13415937 "Exp.Trial" "MASKSCREEN_START_China_E_LET_N_302" 250 "[[291,368,384,384]]" 250 "China" "blue" "non-degradated" "not underlined" "257" NA
1379.228 1.563 13420990 "Exp.Trial" "MASKSCREEN_START_Jubel_K_DEG_N_240" 251 "[[229,306,384,384]]" 251 "Jubel" "black" "degradated" "not underlined" "12" NA
1382.474 1.759 13424236 "Exp.Trial" "MASKSCREEN_START_Wunde_E_DEG_U_290" 252 "[[279,356,384,384]]" 252 "Wunde" "blue" "degradated" "underlined" "202" NA
1385.765 2.934 13427527 "Exp.Trial" "MASKSCREEN_START_Puder_E_DEG_N_389" 253 "[[378,455,384,384]]" 253 "Puder" "blue" "degradated" "not underlined" "181" NA
1390.287 2.401 13432049 "Exp.Trial" "MASKSCREEN_START_Optik_E_LET_U_352" 254 "[[341,418,384,384]]" 254 "Optik" "blue" "non-degradated" "underlined" "301" NA
1394.072 1.426 13435834 "Exp.Trial" "MASKSCREEN_START_Kette_E_DEG_N_252" 255 "[[241,318,384,384]]" 255 "Kette" "blue" "degradated" "not underlined" "199" NA
1397.165 2.141 13438927 "Exp.Trial" "MASKSCREEN_START_Klaps_K_DEG_U_401" 256 "[[390,467,384,384]]" 256 "Klaps" "black" "degradated" "underlined" "70" NA
1401.765 2.36 13443527 "Exp.Trial" "MASKSCREEN_START_Phase_K_DEG_U_228" 257 "[[217,294,384,384]]" 257 "Phase" "black" "degradated" "underlined" "69" NA
1405.694 2.319 13447456 "Exp.Trial" "MASKSCREEN_START_Lehne_E_DEG_U_401" 258 "[[390,467,384,384]]" 258 "Lehne" "blue" "degradated" "underlined" "224" NA
1409.366 3.413 13451128 "Exp.Trial" "MASKSCREEN_START_Griff_E_DEG_U_364" 259 "[[353,430,384,384]]" 259 "Griff" "blue" "degradated" "underlined" "225" NA
1414.384 2.996 13456146 "Exp.Trial" "MASKSCREEN_START_Meise_K_LET_N_426" 260 "[[415,492,384,384]]" 260 "Meise" "black" "non-degradated" "not underlined" "105" NA
1418.839 2.577 13460601 "Exp.Trial" "MASKSCREEN_START_Zwerg_K_LET_N_252" 261 "[[241,318,384,384]]" 261 "Zwerg" "black" "non-degradated" "not underlined" "93" NA
1423.107 1.778 13464869 "Exp.Trial" "MASKSCREEN_START_Zeder_E_LET_U_265" 262 "[[254,331,384,384]]" 262 "Zeder" "blue" "non-degradated" "underlined" "304" 0
1431.165 2.338 13472927 "Exp.Trial" "MASKSCREEN_START_Lunge_K_LET_N_476" 263 "[[465,542,384,384]]" 263 "Lunge" "black" "non-degradated" "not underlined" "81" 0
1441.834 2.07 13483596 "Exp.Trial" "MASKSCREEN_START_Beute_E_DEG_N_389" 264 "[[378,455,384,384]]" 264 "Beute" "blue" "degradated" "not underlined" "169" NA
1445.541 2.238 13487303 "Exp.Trial" "MASKSCREEN_START_Probe_K_LET_N_240" 265 "[[229,306,384,384]]" 265 "Probe" "black" "non-degradated" "not underlined" "117" NA
1450.497 4.749 13492259 "Exp.Trial" "MASKSCREEN_START_Kugel_E_DEG_N_314" 266 "[[303,380,384,384]]" 266 "Kugel" "blue" "degradated" "not underlined" "186" NA
1456.636 1.671 13498398 "Exp.Trial" "MASKSCREEN_START_Tabak_E_LET_U_290" 267 "[[279,356,384,384]]" 267 "Tabak" "blue" "non-degradated" "underlined" "316" NA
1459.71 1.724 13501472 "Exp.Trial" "MASKSCREEN_START_Stamm_E_LET_N_414" 268 "[[403,480,384,384]]" 268 "Stamm" "blue" "non-degradated" "not underlined" "274" NA
1462.923 2.278 13504685 "Exp.Trial" "MASKSCREEN_START_Lette_K_LET_N_228" 269 "[[217,294,384,384]]" 269 "Lette" "black" "non-degradated" "not underlined" "96" NA
1466.62 1.544 13508382 "Exp.Trial" "MASKSCREEN_START_Anker_K_DEG_N_290" 270 "[[279,356,384,384]]" 270 "Anker" "black" "degradated" "not underlined" "22" NA
1469.926 1.49 13511688 "Exp.Trial" "MASKSCREEN_START_Klotz_K_LET_U_252" 271 "[[241,318,384,384]]" 271 "Klotz" "black" "non-degradated" "underlined" "136" 0
1476.287 1.941 13518049 "Exp.Trial" "MASKSCREEN_START_Spott_E_DEG_N_265" 272 "[[254,331,384,384]]" 272 "Spott" "blue" "degradated" "not underlined" "180" 0
1483.754 2.487 13525516 "Exp.Trial" "MASKSCREEN_START_Genre_E_LET_N_228" 273 "[[217,294,384,384]]" 273 "Genre" "blue" "non-degradated" "not underlined" "249" NA
1487.783 2.888 13529545 "Exp.Trial" "MASKSCREEN_START_Bogen_E_DEG_U_401" 274 "[[390,467,384,384]]" 274 "Bogen" "blue" "degradated" "underlined" "221" NA
1493.334 2.52 13535096 "Exp.Trial" "MASKSCREEN_START_Fötus_E_LET_U_352" 275 "[[341,418,384,384]]" 275 "Fötus" "blue" "non-degradated" "underlined" "289" NA
1497.395 2.807 13539157 "Exp.Trial" "MASKSCREEN_START_Motiv_K_DEG_N_290" 276 "[[279,356,384,384]]" 276 "Motiv" "black" "degradated" "not underlined" "13" NA
1501.763 2.883 13543525 "Exp.Trial" "MASKSCREEN_START_Wärme_K_DEG_N_252" 277 "[[241,318,384,384]]" 277 "Wärme" "black" "degradated" "not underlined" "21" 0
1511.214 3.422 13552976 "Exp.Trial" "MASKSCREEN_START_Witwe_K_DEG_U_352" 278 "[[341,418,384,384]]" 278 "Witwe" "black" "degradated" "underlined" "64" NA
1516.215 2.673 13557977 "Exp.Trial" "MASKSCREEN_START_Weber_K_DEG_N_339" 279 "[[328,405,384,384]]" 279 "Weber" "black" "degradated" "not underlined" "38" NA
1520.337 1.814 13562099 "Exp.Trial" "MASKSCREEN_START_Übung_K_LET_N_228" 280 "[[217,294,384,384]]" 280 "Übung" "black" "non-degradated" "not underlined" "100" NA
1523.539 2.456 13565301 "Exp.Trial" "MASKSCREEN_START_Lauch_E_DEG_N_500" 281 "[[489,566,384,384]]" 281 "Lauch" "blue" "degradated" "not underlined" "197" NA
1527.62 2.793 13569382 "Exp.Trial" "MASKSCREEN_START_Kerze_E_DEG_N_277" 282 "[[266,343,384,384]]" 282 "Kerze" "blue" "degradated" "not underlined" "165" NA
1532.83 2.334 13574592 "Exp.Trial" "MASKSCREEN_START_Würde_K_LET_N_376" 283 "[[365,442,384,384]]" 283 "Würde" "black" "non-degradated" "not underlined" "104" NA
1536.742 2.345 13578504 "Exp.Trial" "MASKSCREEN_START_Kreml_E_DEG_U_488" 284 "[[477,554,384,384]]" 284 "Kreml" "blue" "degradated" "underlined" "222" NA
1540.63 3.494 13582392 "Exp.Trial" "MASKSCREEN_START_Ziege_K_DEG_U_451" 285 "[[440,517,384,384]]" 285 "Ziege" "black" "degradated" "underlined" "51" 0
1550.596 1.999 13592358 "Exp.Trial" "MASKSCREEN_START_Flair_K_LET_U_240" 286 "[[229,306,384,384]]" 286 "Flair" "black" "non-degradated" "underlined" "147" NA
1554.227 2.797 13595989 "Exp.Trial" "MASKSCREEN_START_Malve_E_LET_N_339" 287 "[[328,405,384,384]]" 287 "Malve" "blue" "non-degradated" "not underlined" "241" NA
1558.561 2.386 13600323 "Exp.Trial" "MASKSCREEN_START_Spore_K_DEG_U_339" 288 "[[328,405,384,384]]" 288 "Spore" "black" "degradated" "underlined" "42" NA
1562.935 2.839 13604697 "Exp.Trial" "MASKSCREEN_START_Teint_E_DEG_U_302" 289 "[[291,368,384,384]]" 289 "Teint" "blue" "degradated" "underlined" "229" 0
1574.054 2.567 13615816 "Exp.Trial" "MASKSCREEN_START_Biest_K_LET_N_314" 290 "[[303,380,384,384]]" 290 "Biest" "black" "non-degradated" "not underlined" "114" NA
1578.384 2.986 13620146 "Exp.Trial" "MASKSCREEN_START_Hagel_E_DEG_U_438" 291 "[[427,504,384,384]]" 291 "Hagel" "blue" "degradated" "underlined" "227" 0
1587.396 3.13 13629158 "Exp.Trial" "MASKSCREEN_START_Ratte_K_DEG_U_339" 292 "[[328,405,384,384]]" 292 "Ratte" "black" "degradated" "underlined" "49" NA
1591.956 2.374 13633718 "Exp.Trial" "MASKSCREEN_START_Datum_K_LET_N_228" 293 "[[217,294,384,384]]" 293 "Datum" "black" "non-degradated" "not underlined" "107" NA
1595.981 2.767 13637743 "Exp.Trial" "MASKSCREEN_START_Union_K_DEG_U_215" 294 "[[204,281,384,384]]" 294 "Union" "black" "degradated" "underlined" "46" NA
1601.555 2.233 13643317 "Exp.Trial" "MASKSCREEN_START_Hafer_E_DEG_N_203" 295 "[[192,269,384,384]]" 295 "Hafer" "blue" "degradated" "not underlined" "177" NA
1605.254 1.922 13647016 "Exp.Trial" "MASKSCREEN_START_Slawe_E_DEG_N_277" 296 "[[266,343,384,384]]" 296 "Slawe" "blue" "degradated" "not underlined" "171" 0
1612.548 1.872 13654310 "Exp.Trial" "MASKSCREEN_START_Viper_K_DEG_N_364" 297 "[[353,430,384,384]]" 297 "Viper" "black" "degradated" "not underlined" "19" NA
1616.061 2.232 13657823 "Exp.Trial" "MASKSCREEN_START_Rispe_E_LET_N_376" 298 "[[365,442,384,384]]" 298 "Rispe" "blue" "non-degradated" "not underlined" "275" NA
1620.11 2.458 13661872 "Exp.Trial" "MASKSCREEN_START_Mähre_E_DEG_N_401" 299 "[[390,467,384,384]]" 299 "Mähre" "blue" "degradated" "not underlined" "167" NA
1624.145 3.657 13665907 "Exp.Trial" "MASKSCREEN_START_Organ_E_LET_U_339" 300 "[[328,405,384,384]]" 300 "Organ" "blue" "non-degradated" "underlined" "305" NA
1629.232 1.568 13670994 "Exp.Trial" "MASKSCREEN_START_Henne_E_LET_U_228" 301 "[[217,294,384,384]]" 301 "Henne" "blue" "non-degradated" "underlined" "320" NA
1632.425 2.075 13674187 "Exp.Trial" "MASKSCREEN_START_Panne_E_LET_N_252" 302 "[[241,318,384,384]]" 302 "Panne" "blue" "non-degradated" "not underlined" "276" NA
1636.075 1.767 13677837 "Exp.Trial" "MASKSCREEN_START_Abgas_K_LET_U_252" 303 "[[241,318,384,384]]" 303 "Abgas" "black" "non-degradated" "underlined" "138" NA
1639.255 2.231 13681017 "Exp.Trial" "MASKSCREEN_START_Tarif_K_LET_N_215" 304 "[[204,281,384,384]]" 304 "Tarif" "black" "non-degradated" "not underlined" "90" NA
1643.151 2.033 13684913 "Exp.Trial" "MASKSCREEN_START_Gecko_E_LET_N_314" 305 "[[303,380,384,384]]" 305 "Gecko" "blue" "non-degradated" "not underlined" "268" 0
1650.398 3.423 13692160 "Exp.Trial" "MASKSCREEN_START_Mokka_E_LET_U_302" 306 "[[291,368,384,384]]" 306 "Mokka" "blue" "non-degradated" "underlined" "312" 0
1661.42 2.174 13703182 "Exp.Trial" "MASKSCREEN_START_Pferd_E_LET_U_228" 307 "[[217,294,384,384]]" 307 "Pferd" "blue" "non-degradated" "underlined" "282" NA
1665.336 4.969 13707098 "Exp.Trial" "MASKSCREEN_START_Liste_K_LET_N_426" 308 "[[415,492,384,384]]" 308 "Liste" "black" "non-degradated" "not underlined" "99" NA
1672.247 2.957 13714009 "Exp.Trial" "MASKSCREEN_START_Insel_K_DEG_N_339" 309 "[[328,405,384,384]]" 309 "Insel" "black" "degradated" "not underlined" "2" NA
1676.727 2.541 13718489 "Exp.Trial" "MASKSCREEN_START_Kakao_E_DEG_U_525" 310 "[[514,591,384,384]]" 310 "Kakao" "blue" "degradated" "underlined" "208" NA
1680.857 2.448 13722619 "Exp.Trial" "MASKSCREEN_START_Gräte_E_LET_N_240" 311 "[[229,306,384,384]]" 311 "Gräte" "blue" "non-degradated" "not underlined" "243" NA
1684.919 2.855 13726681 "Exp.Trial" "MASKSCREEN_START_Abzug_K_LET_U_240" 312 "[[229,306,384,384]]" 312 "Abzug" "black" "non-degradated" "underlined" "130" NA
1689.221 2.698 13730983 "Exp.Trial" "MASKSCREEN_START_Dogma_K_DEG_U_352" 313 "[[341,418,384,384]]" 313 "Dogma" "black" "degradated" "underlined" "67" NA
1693.316 2.669 13735078 "Exp.Trial" "MASKSCREEN_START_Nugat_K_DEG_U_265" 314 "[[254,331,384,384]]" 314 "Nugat" "black" "degradated" "underlined" "55" NA
1697.599 1.565 13739361 "Exp.Trial" "MASKSCREEN_START_Abend_K_DEG_N_252" 315 "[[241,318,384,384]]" 315 "Abend" "black" "degradated" "not underlined" "7" NA
1700.618 2.252 13742380 "Exp.Trial" "MASKSCREEN_START_Modul_K_LET_U_513" 316 "[[502,579,384,384]]" 316 "Modul" "black" "non-degradated" "underlined" "127" NA
1704.303 3.931 13746065 "Exp.Trial" "MASKSCREEN_START_Karte_E_LET_N_327" 317 "[[316,393,384,384]]" 317 "Karte" "blue" "non-degradated" "not underlined" "254" NA
1709.898 2.317 13751660 "Exp.Trial" "MASKSCREEN_START_Hocke_E_LET_U_265" 318 "[[254,331,384,384]]" 318 "Hocke" "blue" "non-degradated" "underlined" "308" NA
1713.623 2.978 13755385 "Exp.Trial" "MASKSCREEN_START_Echse_E_LET_U_228" 319 "[[217,294,384,384]]" 319 "Echse" "blue" "non-degradated" "underlined" "288" NA
1718.149 2.46 13759911 "Exp.Trial" "MASKSCREEN_START_Ölung_K_DEG_N_228" 320 "[[217,294,384,384]]" 320 "Ölung" "black" "degradated" "not underlined" "14" NA
