"onset" "duration" "sample" "trial_type" "eventIdentifier" "event_nr" "aoi" "trial" "target_word" "color" "mask" "underlining" "sentenceNr" "response"
0 1.456 3308850 "Exp.Trial" "MASKSCREEN_START_Beton_E_DEG_N_277" 1 "[[266,343,384,384]]" 1 "Beton" "blue" "degradated" "not underlined" "125" NA
3.122 2.316 3311972 "Exp.Trial" "MASKSCREEN_START_Mokka_K_DEG_N_302" 2 "[[291,368,384,384]]" 2 "Mokka" "black" "degradated" "not underlined" "312" NA
7.51 1.252 3316360 "Exp.Trial" "MASKSCREEN_START_Mango_K_DEG_N_228" 3 "[[217,294,384,384]]" 3 "Mango" "black" "degradated" "not underlined" "286" NA
10.34 1.374 3319190 "Exp.Trial" "MASKSCREEN_START_Modul_E_DEG_N_513" 4 "[[502,579,384,384]]" 4 "Modul" "blue" "degradated" "not underlined" "127" NA
13.458 1.68 3322308 "Exp.Trial" "MASKSCREEN_START_Kakao_K_LET_N_525" 5 "[[514,591,384,384]]" 5 "Kakao" "black" "non-degradated" "not underlined" "208" NA
16.721 1.489 3325571 "Exp.Trial" "MASKSCREEN_START_Tapir_E_DEG_U_277" 6 "[[266,343,384,384]]" 6 "Tapir" "blue" "degradated" "underlined" "92" 0
25.266 1.369 3334116 "Exp.Trial" "MASKSCREEN_START_Bogen_K_LET_N_401" 7 "[[390,467,384,384]]" 7 "Bogen" "black" "non-degradated" "not underlined" "221" NA
28.319 1.696 3337169 "Exp.Trial" "MASKSCREEN_START_Markt_E_LET_N_302" 8 "[[291,368,384,384]]" 8 "Markt" "blue" "non-degradated" "not underlined" "74" NA
31.85 1.498 3340700 "Exp.Trial" "MASKSCREEN_START_Kelch_E_LET_U_327" 9 "[[316,393,384,384]]" 9 "Kelch" "blue" "non-degradated" "underlined" "8" NA
35.953 2.21 3344803 "Exp.Trial" "MASKSCREEN_START_Chrom_K_LET_N_277" 10 "[[266,343,384,384]]" 10 "Chrom" "black" "non-degradated" "not underlined" "213" NA
39.956 1.451 3348806 "Exp.Trial" "MASKSCREEN_START_Yacht_E_LET_U_215" 11 "[[204,281,384,384]]" 11 "Yacht" "blue" "non-degradated" "underlined" "28" NA
42.988 1.861 3351838 "Exp.Trial" "MASKSCREEN_START_Genre_K_DEG_U_228" 12 "[[217,294,384,384]]" 12 "Genre" "black" "degradated" "underlined" "249" NA
46.507 1.596 3355357 "Exp.Trial" "MASKSCREEN_START_Lachs_E_LET_U_352" 13 "[[341,418,384,384]]" 13 "Lachs" "blue" "non-degradated" "underlined" "24" NA
51.4 1.266 3360250 "Exp.Trial" "MASKSCREEN_START_Zeche_E_DEG_U_277" 14 "[[266,343,384,384]]" 14 "Zeche" "blue" "degradated" "underlined" "82" NA
54.335 1.925 3363185 "Exp.Trial" "MASKSCREEN_START_Axiom_E_LET_U_364" 15 "[[353,430,384,384]]" 15 "Axiom" "blue" "non-degradated" "underlined" "27" NA
57.886 1.151 3366736 "Exp.Trial" "MASKSCREEN_START_Nugat_E_LET_N_265" 16 "[[254,331,384,384]]" 16 "Nugat" "blue" "non-degradated" "not underlined" "55" NA
60.574 1.301 3369424 "Exp.Trial" "MASKSCREEN_START_Echse_K_DEG_N_228" 17 "[[217,294,384,384]]" 17 "Echse" "black" "degradated" "not underlined" "288" NA
64.736 1.531 3373586 "Exp.Trial" "MASKSCREEN_START_Plage_E_LET_N_240" 18 "[[229,306,384,384]]" 18 "Plage" "blue" "non-degradated" "not underlined" "54" 0
72.35 1.592 3381200 "Exp.Trial" "MASKSCREEN_START_Waffe_K_LET_U_389" 19 "[[378,455,384,384]]" 19 "Waffe" "black" "non-degradated" "underlined" "174" NA
75.583 2.38 3384433 "Exp.Trial" "MASKSCREEN_START_Balte_K_LET_N_265" 20 "[[254,331,384,384]]" 20 "Balte" "black" "non-degradated" "not underlined" "239" 0
82.786 1.105 3391636 "Exp.Trial" "MASKSCREEN_START_Beruf_E_LET_U_314" 21 "[[303,380,384,384]]" 21 "Beruf" "blue" "non-degradated" "underlined" "17" NA
85.56 1.722 3394410 "Exp.Trial" "MASKSCREEN_START_König_K_LET_U_550" 22 "[[539,616,384,384]]" 22 "König" "black" "non-degradated" "underlined" "178" 0
93.573 1.058 3402423 "Exp.Trial" "MASKSCREEN_START_Rache_K_LET_N_302" 23 "[[291,368,384,384]]" 23 "Rache" "black" "non-degradated" "not underlined" "223" 0
98.811 1.241 3407661 "Exp.Trial" "MASKSCREEN_START_Lager_E_DEG_N_228" 24 "[[217,294,384,384]]" 24 "Lager" "blue" "degradated" "not underlined" "145" NA
102.675 1.214 3411525 "Exp.Trial" "MASKSCREEN_START_Falle_K_DEG_U_339" 25 "[[328,405,384,384]]" 25 "Falle" "black" "degradated" "underlined" "244" NA
106.504 1.834 3415354 "Exp.Trial" "MASKSCREEN_START_Klaps_E_LET_N_401" 26 "[[390,467,384,384]]" 26 "Klaps" "blue" "non-degradated" "not underlined" "70" NA
109.969 1.567 3418819 "Exp.Trial" "MASKSCREEN_START_Kolik_K_DEG_U_302" 27 "[[291,368,384,384]]" 27 "Kolik" "black" "degradated" "underlined" "253" NA
113.169 1.553 3422019 "Exp.Trial" "MASKSCREEN_START_Mafia_E_LET_U_314" 28 "[[303,380,384,384]]" 28 "Mafia" "blue" "non-degradated" "underlined" "16" NA
116.441 1.093 3425291 "Exp.Trial" "MASKSCREEN_START_Übung_E_DEG_U_228" 29 "[[217,294,384,384]]" 29 "Übung" "blue" "degradated" "underlined" "100" NA
119.21 1.696 3428060 "Exp.Trial" "MASKSCREEN_START_Moder_E_DEG_U_265" 30 "[[254,331,384,384]]" 30 "Moder" "blue" "degradated" "underlined" "97" NA
122.476 1.166 3431326 "Exp.Trial" "MASKSCREEN_START_Polio_E_DEG_U_364" 31 "[[353,430,384,384]]" 31 "Polio" "blue" "degradated" "underlined" "103" NA
125.058 1.007 3433908 "Exp.Trial" "MASKSCREEN_START_Luder_K_DEG_U_314" 32 "[[303,380,384,384]]" 32 "Luder" "black" "degradated" "underlined" "259" 0
131.517 1.989 3440367 "Exp.Trial" "MASKSCREEN_START_Weber_E_LET_U_339" 33 "[[328,405,384,384]]" 33 "Weber" "blue" "non-degradated" "underlined" "38" NA
135.108 1.869 3443958 "Exp.Trial" "MASKSCREEN_START_Fjord_K_DEG_N_414" 34 "[[403,480,384,384]]" 34 "Fjord" "black" "degradated" "not underlined" "283" NA
138.614 1.496 3447464 "Exp.Trial" "MASKSCREEN_START_Rinde_E_DEG_N_314" 35 "[[303,380,384,384]]" 35 "Rinde" "blue" "degradated" "not underlined" "148" NA
142.596 1.673 3451446 "Exp.Trial" "MASKSCREEN_START_Sippe_K_LET_U_414" 36 "[[403,480,384,384]]" 36 "Sippe" "black" "non-degradated" "underlined" "188" NA
147.707 1.464 3456557 "Exp.Trial" "MASKSCREEN_START_Weihe_K_DEG_U_401" 37 "[[390,467,384,384]]" 37 "Weihe" "black" "degradated" "underlined" "264" NA
150.901 1.255 3459751 "Exp.Trial" "MASKSCREEN_START_Getön_K_LET_U_265" 38 "[[254,331,384,384]]" 38 "Getön" "black" "non-degradated" "underlined" "175" NA
155.05 1.578 3463900 "Exp.Trial" "MASKSCREEN_START_Messe_K_DEG_N_240" 39 "[[229,306,384,384]]" 39 "Messe" "black" "degradated" "not underlined" "310" NA
158.355 1.653 3467205 "Exp.Trial" "MASKSCREEN_START_Ziege_E_LET_N_451" 40 "[[440,517,384,384]]" 40 "Ziege" "blue" "non-degradated" "not underlined" "51" NA
161.96 2.274 3470810 "Exp.Trial" "MASKSCREEN_START_Mimik_K_DEG_N_352" 41 "[[341,418,384,384]]" 41 "Mimik" "black" "degradated" "not underlined" "293" NA
165.89 1.54 3474740 "Exp.Trial" "MASKSCREEN_START_Anbau_K_DEG_U_302" 42 "[[291,368,384,384]]" 42 "Anbau" "black" "degradated" "underlined" "250" NA
170.292 1.596 3479142 "Exp.Trial" "MASKSCREEN_START_Summe_E_DEG_N_265" 43 "[[254,331,384,384]]" 43 "Summe" "blue" "degradated" "not underlined" "123" 0
177.727 1.3 3486577 "Exp.Trial" "MASKSCREEN_START_Abzug_E_DEG_N_240" 44 "[[229,306,384,384]]" 44 "Abzug" "blue" "degradated" "not underlined" "130" NA
180.654 1.153 3489504 "Exp.Trial" "MASKSCREEN_START_Eifer_E_DEG_U_376" 45 "[[365,442,384,384]]" 45 "Eifer" "blue" "degradated" "underlined" "84" NA
184.856 1.515 3493706 "Exp.Trial" "MASKSCREEN_START_Armee_K_DEG_N_290" 46 "[[279,356,384,384]]" 46 "Armee" "black" "degradated" "not underlined" "284" 0
193.313 1.994 3502163 "Exp.Trial" "MASKSCREEN_START_Härte_E_LET_N_314" 47 "[[303,380,384,384]]" 47 "Härte" "blue" "non-degradated" "not underlined" "72" NA
196.891 2.317 3505741 "Exp.Trial" "MASKSCREEN_START_Dunst_E_DEG_N_277" 48 "[[266,343,384,384]]" 48 "Dunst" "blue" "degradated" "not underlined" "150" 0
206.033 1.337 3514883 "Exp.Trial" "MASKSCREEN_START_Hecke_K_LET_N_228" 49 "[[217,294,384,384]]" 49 "Hecke" "black" "non-degradated" "not underlined" "230" NA
209.032 1.273 3517882 "Exp.Trial" "MASKSCREEN_START_Optik_K_DEG_N_352" 50 "[[341,418,384,384]]" 50 "Optik" "black" "degradated" "not underlined" "301" NA
213.517 3.097 3522367 "Exp.Trial" "MASKSCREEN_START_Hülle_K_DEG_N_252" 51 "[[241,318,384,384]]" 51 "Hülle" "black" "degradated" "not underlined" "294" NA
218.252 2.374 3527102 "Exp.Trial" "MASKSCREEN_START_Psalm_E_DEG_U_215" 52 "[[204,281,384,384]]" 52 "Psalm" "blue" "degradated" "underlined" "118" NA
222.19 1.185 3531040 "Exp.Trial" "MASKSCREEN_START_Feger_K_DEG_N_240" 53 "[[229,306,384,384]]" 53 "Feger" "black" "degradated" "not underlined" "285" NA
224.971 1.782 3533821 "Exp.Trial" "MASKSCREEN_START_Strom_K_LET_U_240" 54 "[[229,306,384,384]]" 54 "Strom" "black" "non-degradated" "underlined" "163" 0
234.323 1.636 3543173 "Exp.Trial" "MASKSCREEN_START_Pferd_K_DEG_N_228" 55 "[[217,294,384,384]]" 55 "Pferd" "black" "degradated" "not underlined" "282" NA
237.377 1.658 3546227 "Exp.Trial" "MASKSCREEN_START_Dämon_K_LET_U_265" 56 "[[254,331,384,384]]" 56 "Dämon" "black" "non-degradated" "underlined" "192" 0
244.128 1.151 3552978 "Exp.Trial" "MASKSCREEN_START_Liege_K_DEG_U_215" 57 "[[204,281,384,384]]" 57 "Liege" "black" "degradated" "underlined" "280" NA
247.706 1.359 3556556 "Exp.Trial" "MASKSCREEN_START_Organ_K_DEG_N_339" 58 "[[328,405,384,384]]" 58 "Organ" "black" "degradated" "not underlined" "305" NA
250.813 2.653 3559663 "Exp.Trial" "MASKSCREEN_START_Kuhle_E_LET_N_277" 59 "[[266,343,384,384]]" 59 "Kuhle" "blue" "non-degradated" "not underlined" "45" NA
255.175 0.971 3564025 "Exp.Trial" "MASKSCREEN_START_Kette_K_LET_U_252" 60 "[[241,318,384,384]]" 60 "Kette" "black" "non-degradated" "underlined" "199" NA
257.81 1.662 3566660 "Exp.Trial" "MASKSCREEN_START_Fülle_K_DEG_U_290" 61 "[[279,356,384,384]]" 61 "Fülle" "black" "degradated" "underlined" "271" NA
262.436 1.628 3571286 "Exp.Trial" "MASKSCREEN_START_Stern_K_LET_N_228" 62 "[[217,294,384,384]]" 62 "Stern" "black" "non-degradated" "not underlined" "237" NA
265.65 2.36 3574500 "Exp.Trial" "MASKSCREEN_START_Thron_K_DEG_N_203" 63 "[[192,269,384,384]]" 63 "Thron" "black" "degradated" "not underlined" "307" 0
274.14 2.204 3582990 "Exp.Trial" "MASKSCREEN_START_Spreu_K_LET_U_364" 64 "[[353,430,384,384]]" 64 "Spreu" "black" "non-degradated" "underlined" "161" NA
278.382 1.914 3587232 "Exp.Trial" "MASKSCREEN_START_Rispe_K_DEG_U_376" 65 "[[365,442,384,384]]" 65 "Rispe" "black" "degradated" "underlined" "275" NA
281.88 1.175 3590730 "Exp.Trial" "MASKSCREEN_START_Seide_E_DEG_N_339" 66 "[[328,405,384,384]]" 66 "Seide" "blue" "degradated" "not underlined" "152" NA
284.601 1.676 3593451 "Exp.Trial" "MASKSCREEN_START_Agent_K_DEG_N_401" 67 "[[390,467,384,384]]" 67 "Agent" "black" "degradated" "not underlined" "291" 0
291.91 1.769 3600760 "Exp.Trial" "MASKSCREEN_START_Boxer_K_DEG_N_314" 68 "[[303,380,384,384]]" 68 "Boxer" "black" "degradated" "not underlined" "313" NA
295.342 1.239 3604192 "Exp.Trial" "MASKSCREEN_START_Tulpe_K_DEG_U_500" 69 "[[489,566,384,384]]" 69 "Tulpe" "black" "degradated" "underlined" "245" NA
298.888 1.761 3607738 "Exp.Trial" "MASKSCREEN_START_Bühne_E_DEG_U_488" 70 "[[477,554,384,384]]" 70 "Bühne" "blue" "degradated" "underlined" "101" NA
303.362 2.015 3612212 "Exp.Trial" "MASKSCREEN_START_Beleg_K_LET_N_327" 71 "[[316,393,384,384]]" 71 "Beleg" "black" "non-degradated" "not underlined" "212" NA
307.013 1.291 3615863 "Exp.Trial" "MASKSCREEN_START_Abruf_E_LET_N_389" 72 "[[378,455,384,384]]" 72 "Abruf" "blue" "non-degradated" "not underlined" "71" NA
309.953 1.72 3618803 "Exp.Trial" "MASKSCREEN_START_Dogma_E_LET_N_352" 73 "[[341,418,384,384]]" 73 "Dogma" "blue" "non-degradated" "not underlined" "67" NA
313.285 1.426 3622135 "Exp.Trial" "MASKSCREEN_START_Hocke_K_DEG_N_265" 74 "[[254,331,384,384]]" 74 "Hocke" "black" "degradated" "not underlined" "308" NA
316.327 1.387 3625177 "Exp.Trial" "MASKSCREEN_START_Radio_E_DEG_U_352" 75 "[[341,418,384,384]]" 75 "Radio" "blue" "degradated" "underlined" "109" NA
320.747 1.637 3629597 "Exp.Trial" "MASKSCREEN_START_Meise_E_DEG_U_426" 76 "[[415,492,384,384]]" 76 "Meise" "blue" "degradated" "underlined" "105" NA
324.133 1.457 3632983 "Exp.Trial" "MASKSCREEN_START_Anruf_E_DEG_U_376" 77 "[[365,442,384,384]]" 77 "Anruf" "blue" "degradated" "underlined" "91" NA
327.22 1.737 3636070 "Exp.Trial" "MASKSCREEN_START_Masse_E_LET_N_228" 78 "[[217,294,384,384]]" 78 "Masse" "blue" "non-degradated" "not underlined" "50" NA
330.663 1.784 3639513 "Exp.Trial" "MASKSCREEN_START_Nonne_K_LET_U_265" 79 "[[254,331,384,384]]" 79 "Nonne" "black" "non-degradated" "underlined" "198" NA
334.136 2.034 3642986 "Exp.Trial" "MASKSCREEN_START_Laich_E_DEG_U_327" 80 "[[316,393,384,384]]" 80 "Laich" "blue" "degradated" "underlined" "113" NA
337.826 1.914 3646676 "Exp.Trial" "MASKSCREEN_START_Daune_E_DEG_U_327" 81 "[[316,393,384,384]]" 81 "Daune" "blue" "degradated" "underlined" "110" NA
341.307 2.92 3650157 "Exp.Trial" "MASKSCREEN_START_Porto_E_LET_N_290" 82 "[[279,356,384,384]]" 82 "Porto" "blue" "non-degradated" "not underlined" "59" NA
345.846 1.806 3654696 "Exp.Trial" "MASKSCREEN_START_Gerät_E_DEG_U_277" 83 "[[266,343,384,384]]" 83 "Gerät" "blue" "degradated" "underlined" "119" NA
349.187 1.143 3658037 "Exp.Trial" "MASKSCREEN_START_Stube_K_DEG_U_240" 84 "[[229,306,384,384]]" 84 "Stube" "black" "degradated" "underlined" "273" NA
351.967 1.311 3660817 "Exp.Trial" "MASKSCREEN_START_Insel_E_LET_U_339" 85 "[[328,405,384,384]]" 85 "Insel" "blue" "non-degradated" "underlined" "2" NA
354.961 1.254 3663811 "Exp.Trial" "MASKSCREEN_START_Zicke_K_LET_U_252" 86 "[[241,318,384,384]]" 86 "Zicke" "black" "non-degradated" "underlined" "183" NA
357.636 1.443 3666486 "Exp.Trial" "MASKSCREEN_START_Bitte_K_LET_N_252" 87 "[[241,318,384,384]]" 87 "Bitte" "black" "non-degradated" "not underlined" "235" NA
360.723 2.131 3669573 "Exp.Trial" "MASKSCREEN_START_Ahorn_K_LET_U_228" 88 "[[217,294,384,384]]" 88 "Ahorn" "black" "non-degradated" "underlined" "193" 0
370.461 1.276 3679311 "Exp.Trial" "MASKSCREEN_START_Trupp_K_DEG_U_240" 89 "[[229,306,384,384]]" 89 "Trupp" "black" "degradated" "underlined" "262" NA
373.322 1.226 3682172 "Exp.Trial" "MASKSCREEN_START_Datum_E_DEG_U_228" 90 "[[217,294,384,384]]" 90 "Datum" "blue" "degradated" "underlined" "107" NA
375.977 1.232 3684827 "Exp.Trial" "MASKSCREEN_START_Bauer_K_LET_U_389" 91 "[[378,455,384,384]]" 91 "Bauer" "black" "non-degradated" "underlined" "196" NA
378.641 1.249 3687491 "Exp.Trial" "MASKSCREEN_START_Seife_E_LET_U_290" 92 "[[279,356,384,384]]" 92 "Seife" "blue" "non-degradated" "underlined" "6" NA
381.5 1.049 3690350 "Exp.Trial" "MASKSCREEN_START_Tante_K_LET_N_265" 93 "[[254,331,384,384]]" 93 "Tante" "black" "non-degradated" "not underlined" "215" NA
384.157 1.702 3693007 "Exp.Trial" "MASKSCREEN_START_Zucht_E_DEG_U_314" 94 "[[303,380,384,384]]" 94 "Zucht" "blue" "degradated" "underlined" "111" NA
387.275 2.641 3696125 "Exp.Trial" "MASKSCREEN_START_Korps_K_DEG_N_550" 95 "[[539,616,384,384]]" 95 "Korps" "black" "degradated" "not underlined" "309" NA
391.498 1.603 3700348 "Exp.Trial" "MASKSCREEN_START_Natur_K_DEG_U_265" 96 "[[254,331,384,384]]" 96 "Natur" "black" "degradated" "underlined" "246" NA
394.531 1.648 3703381 "Exp.Trial" "MASKSCREEN_START_Blech_E_LET_U_277" 97 "[[266,343,384,384]]" 97 "Blech" "blue" "non-degradated" "underlined" "36" NA
397.597 1.058 3706447 "Exp.Trial" "MASKSCREEN_START_Feder_K_LET_N_314" 98 "[[303,380,384,384]]" 98 "Feder" "black" "non-degradated" "not underlined" "231" 0
404.176 1.697 3713026 "Exp.Trial" "MASKSCREEN_START_Ratte_E_LET_N_339" 99 "[[328,405,384,384]]" 99 "Ratte" "blue" "non-degradated" "not underlined" "49" NA
407.27 1.319 3716120 "Exp.Trial" "MASKSCREEN_START_Zwang_K_DEG_U_352" 100 "[[341,418,384,384]]" 100 "Zwang" "black" "degradated" "underlined" "272" 0
416.227 1.53 3725077 "Exp.Trial" "MASKSCREEN_START_Herde_K_LET_N_277" 101 "[[266,343,384,384]]" 101 "Herde" "black" "non-degradated" "not underlined" "204" NA
420.628 1.502 3729478 "Exp.Trial" "MASKSCREEN_START_Bande_K_LET_N_364" 102 "[[353,430,384,384]]" 102 "Bande" "black" "non-degradated" "not underlined" "209" NA
423.739 1.854 3732589 "Exp.Trial" "MASKSCREEN_START_Reuse_K_DEG_N_327" 103 "[[316,393,384,384]]" 103 "Reuse" "black" "degradated" "not underlined" "315" NA
427.193 1.417 3736043 "Exp.Trial" "MASKSCREEN_START_Pizza_K_LET_N_277" 104 "[[266,343,384,384]]" 104 "Pizza" "black" "non-degradated" "not underlined" "211" NA
430.191 1.398 3739041 "Exp.Trial" "MASKSCREEN_START_Münze_E_DEG_U_352" 105 "[[341,418,384,384]]" 105 "Münze" "blue" "degradated" "underlined" "94" NA
433.192 1.199 3742042 "Exp.Trial" "MASKSCREEN_START_Knast_K_DEG_U_327" 106 "[[316,393,384,384]]" 106 "Knast" "black" "degradated" "underlined" "278" NA
435.814 1.433 3744664 "Exp.Trial" "MASKSCREEN_START_Torte_E_DEG_N_240" 107 "[[229,306,384,384]]" 107 "Torte" "blue" "degradated" "not underlined" "149" NA
438.887 1.426 3747737 "Exp.Trial" "MASKSCREEN_START_Kerze_K_LET_U_277" 108 "[[266,343,384,384]]" 108 "Kerze" "black" "non-degradated" "underlined" "165" NA
441.743 1.597 3750593 "Exp.Trial" "MASKSCREEN_START_Sturz_K_LET_N_228" 109 "[[217,294,384,384]]" 109 "Sturz" "black" "non-degradated" "not underlined" "219" NA
444.983 2.027 3753833 "Exp.Trial" "MASKSCREEN_START_Lette_E_DEG_U_228" 110 "[[217,294,384,384]]" 110 "Lette" "blue" "degradated" "underlined" "96" NA
448.666 1.705 3757516 "Exp.Trial" "MASKSCREEN_START_Prinz_K_LET_U_265" 111 "[[254,331,384,384]]" 111 "Prinz" "black" "non-degradated" "underlined" "166" NA
452.611 1.447 3761461 "Exp.Trial" "MASKSCREEN_START_Möbel_K_LET_N_290" 112 "[[279,356,384,384]]" 112 "Möbel" "black" "non-degradated" "not underlined" "226" NA
455.603 1.137 3764453 "Exp.Trial" "MASKSCREEN_START_Union_E_LET_N_215" 113 "[[204,281,384,384]]" 113 "Union" "blue" "non-degradated" "not underlined" "46" NA
459.002 1.467 3767852 "Exp.Trial" "MASKSCREEN_START_Raupe_E_DEG_N_339" 114 "[[328,405,384,384]]" 114 "Raupe" "blue" "degradated" "not underlined" "153" NA
462.188 1.284 3771038 "Exp.Trial" "MASKSCREEN_START_Tunke_E_LET_U_252" 115 "[[241,318,384,384]]" 115 "Tunke" "blue" "non-degradated" "underlined" "30" NA
466.162 1.286 3775012 "Exp.Trial" "MASKSCREEN_START_Mensa_E_DEG_U_277" 116 "[[266,343,384,384]]" 116 "Mensa" "blue" "degradated" "underlined" "83" NA
469.257 1.408 3778107 "Exp.Trial" "MASKSCREEN_START_Trott_K_LET_U_339" 117 "[[328,405,384,384]]" 117 "Trott" "black" "non-degradated" "underlined" "194" NA
472.279 1.432 3781129 "Exp.Trial" "MASKSCREEN_START_Nudel_E_DEG_N_426" 118 "[[415,492,384,384]]" 118 "Nudel" "blue" "degradated" "not underlined" "154" NA
475.319 1.667 3784169 "Exp.Trial" "MASKSCREEN_START_Abbau_K_DEG_N_376" 119 "[[365,442,384,384]]" 119 "Abbau" "black" "degradated" "not underlined" "302" NA
478.558 1.761 3787408 "Exp.Trial" "MASKSCREEN_START_Würze_K_DEG_U_277" 120 "[[266,343,384,384]]" 120 "Würze" "black" "degradated" "underlined" "263" NA
481.964 2.158 3790814 "Exp.Trial" "MASKSCREEN_START_Anker_E_LET_U_290" 121 "[[279,356,384,384]]" 121 "Anker" "blue" "non-degradated" "underlined" "22" NA
485.681 1.395 3794531 "Exp.Trial" "MASKSCREEN_START_Eimer_K_LET_N_538" 122 "[[527,604,384,384]]" 122 "Eimer" "black" "non-degradated" "not underlined" "216" NA
488.656 1.637 3797506 "Exp.Trial" "MASKSCREEN_START_Zeile_E_DEG_U_277" 123 "[[266,343,384,384]]" 123 "Zeile" "blue" "degradated" "underlined" "88" NA
491.967 1.406 3800817 "Exp.Trial" "MASKSCREEN_START_Äther_E_LET_U_451" 124 "[[440,517,384,384]]" 124 "Äther" "blue" "non-degradated" "underlined" "34" NA
494.974 1.676 3803824 "Exp.Trial" "MASKSCREEN_START_Fehde_K_LET_U_252" 125 "[[241,318,384,384]]" 125 "Fehde" "black" "non-degradated" "underlined" "176" 0
503.027 1.286 3811877 "Exp.Trial" "MASKSCREEN_START_Stamm_K_DEG_U_414" 126 "[[403,480,384,384]]" 126 "Stamm" "black" "degradated" "underlined" "274" NA
505.874 1.598 3814724 "Exp.Trial" "MASKSCREEN_START_Heber_K_DEG_N_525" 127 "[[514,591,384,384]]" 127 "Heber" "black" "degradated" "not underlined" "292" 0
513.696 0.923 3822546 "Exp.Trial" "MASKSCREEN_START_Regal_E_LET_U_228" 128 "[[217,294,384,384]]" 128 "Regal" "blue" "non-degradated" "underlined" "10" NA
516.15 1.433 3825000 "Exp.Trial" "MASKSCREEN_START_Miliz_E_DEG_U_290" 129 "[[279,356,384,384]]" 129 "Miliz" "blue" "degradated" "underlined" "120" NA
519.237 1.402 3828087 "Exp.Trial" "MASKSCREEN_START_Motiv_E_LET_U_290" 130 "[[279,356,384,384]]" 130 "Motiv" "blue" "non-degradated" "underlined" "13" NA
522.263 1.757 3831113 "Exp.Trial" "MASKSCREEN_START_Slawe_K_LET_U_277" 131 "[[266,343,384,384]]" 131 "Slawe" "black" "non-degradated" "underlined" "171" NA
525.53 1.772 3834380 "Exp.Trial" "MASKSCREEN_START_Pfund_K_LET_U_426" 132 "[[415,492,384,384]]" 132 "Pfund" "black" "non-degradated" "underlined" "164" NA
528.929 1.814 3837779 "Exp.Trial" "MASKSCREEN_START_Tisch_E_LET_N_488" 133 "[[477,554,384,384]]" 133 "Tisch" "blue" "non-degradated" "not underlined" "62" NA
532.435 1.188 3841285 "Exp.Trial" "MASKSCREEN_START_Musik_K_LET_U_438" 134 "[[427,504,384,384]]" 134 "Musik" "black" "non-degradated" "underlined" "200" NA
536.193 1.329 3845043 "Exp.Trial" "MASKSCREEN_START_Fötus_K_DEG_N_352" 135 "[[341,418,384,384]]" 135 "Fötus" "black" "degradated" "not underlined" "289" NA
539.024 1.33 3847874 "Exp.Trial" "MASKSCREEN_START_Salbe_K_DEG_U_277" 136 "[[266,343,384,384]]" 136 "Salbe" "black" "degradated" "underlined" "247" NA
541.894 1.976 3850744 "Exp.Trial" "MASKSCREEN_START_Votum_K_DEG_N_265" 137 "[[254,331,384,384]]" 137 "Votum" "black" "degradated" "not underlined" "317" NA
545.558 1.482 3854408 "Exp.Trial" "MASKSCREEN_START_Ärmel_E_LET_N_376" 138 "[[365,442,384,384]]" 138 "Ärmel" "blue" "non-degradated" "not underlined" "76" NA
548.737 1.224 3857587 "Exp.Trial" "MASKSCREEN_START_Spore_E_LET_N_339" 139 "[[328,405,384,384]]" 139 "Spore" "blue" "non-degradated" "not underlined" "42" NA
551.598 1.191 3860448 "Exp.Trial" "MASKSCREEN_START_Raser_E_LET_U_290" 140 "[[279,356,384,384]]" 140 "Raser" "blue" "non-degradated" "underlined" "3" NA
554.373 1.736 3863223 "Exp.Trial" "MASKSCREEN_START_Wange_K_DEG_U_401" 141 "[[390,467,384,384]]" 141 "Wange" "black" "degradated" "underlined" "256" NA
557.553 1.29 3866403 "Exp.Trial" "MASKSCREEN_START_Logik_E_DEG_N_389" 142 "[[378,455,384,384]]" 142 "Logik" "blue" "degradated" "not underlined" "144" NA
561.476 2.229 3870326 "Exp.Trial" "MASKSCREEN_START_Beize_E_LET_N_265" 143 "[[254,331,384,384]]" 143 "Beize" "blue" "non-degradated" "not underlined" "58" NA
565.307 1.122 3874157 "Exp.Trial" "MASKSCREEN_START_Ölung_E_LET_U_228" 144 "[[217,294,384,384]]" 144 "Ölung" "blue" "non-degradated" "underlined" "14" NA
568.002 1.194 3876852 "Exp.Trial" "MASKSCREEN_START_Beute_K_LET_U_389" 145 "[[378,455,384,384]]" 145 "Beute" "black" "non-degradated" "underlined" "169" 0
575.53 1.361 3884380 "Exp.Trial" "MASKSCREEN_START_Brust_K_DEG_U_314" 146 "[[303,380,384,384]]" 146 "Brust" "black" "degradated" "underlined" "251" NA
578.479 1.775 3887329 "Exp.Trial" "MASKSCREEN_START_Buche_E_DEG_N_339" 147 "[[328,405,384,384]]" 147 "Buche" "blue" "degradated" "not underlined" "122" 0
585.301 1.594 3894151 "Exp.Trial" "MASKSCREEN_START_Feile_K_LET_U_302" 148 "[[291,368,384,384]]" 148 "Feile" "black" "non-degradated" "underlined" "185" NA
589.697 1.738 3898547 "Exp.Trial" "MASKSCREEN_START_Karte_K_DEG_U_327" 149 "[[316,393,384,384]]" 149 "Karte" "black" "degradated" "underlined" "254" NA
592.974 1.34 3901824 "Exp.Trial" "MASKSCREEN_START_Blitz_E_DEG_N_575" 150 "[[564,641,384,384]]" 150 "Blitz" "blue" "degradated" "not underlined" "121" NA
595.976 1.826 3904826 "Exp.Trial" "MASKSCREEN_START_Beuge_E_LET_N_426" 151 "[[415,492,384,384]]" 151 "Beuge" "blue" "non-degradated" "not underlined" "73" NA
599.441 1.364 3908291 "Exp.Trial" "MASKSCREEN_START_Sünde_K_LET_N_265" 152 "[[254,331,384,384]]" 152 "Sünde" "black" "non-degradated" "not underlined" "207" NA
603.066 1.706 3911916 "Exp.Trial" "MASKSCREEN_START_Regie_E_DEG_U_327" 153 "[[316,393,384,384]]" 153 "Regie" "blue" "degradated" "underlined" "116" NA
606.357 1.219 3915207 "Exp.Trial" "MASKSCREEN_START_Kleid_K_DEG_N_228" 154 "[[217,294,384,384]]" 154 "Kleid" "black" "degradated" "not underlined" "281" NA
609 1.301 3917850 "Exp.Trial" "MASKSCREEN_START_Pedal_K_LET_N_314" 155 "[[303,380,384,384]]" 155 "Pedal" "black" "non-degradated" "not underlined" "214" NA
611.88 1.535 3920730 "Exp.Trial" "MASKSCREEN_START_Reibe_K_DEG_N_476" 156 "[[465,542,384,384]]" 156 "Reibe" "black" "degradated" "not underlined" "295" 0
618.97 1.283 3927820 "Exp.Trial" "MASKSCREEN_START_Motor_E_DEG_U_252" 157 "[[241,318,384,384]]" 157 "Motor" "blue" "degradated" "underlined" "89" NA
621.811 0.984 3930661 "Exp.Trial" "MASKSCREEN_START_Ritze_K_DEG_N_228" 158 "[[217,294,384,384]]" 158 "Ritze" "black" "degradated" "not underlined" "318" 0
628.183 1.554 3937033 "Exp.Trial" "MASKSCREEN_START_Kunde_E_LET_U_228" 159 "[[217,294,384,384]]" 159 "Kunde" "blue" "non-degradated" "underlined" "20" NA
631.357 1.307 3940207 "Exp.Trial" "MASKSCREEN_START_Klima_E_DEG_N_252" 160 "[[241,318,384,384]]" 160 "Klima" "blue" "degradated" "not underlined" "141" 0
639.662 1.247 3948512 "Exp.Trial" "MASKSCREEN_START_Puder_K_LET_U_389" 161 "[[378,455,384,384]]" 161 "Puder" "black" "non-degradated" "underlined" "181" NA
642.484 1.735 3951334 "Exp.Trial" "MASKSCREEN_START_Leere_K_DEG_N_600" 162 "[[589,666,384,384]]" 162 "Leere" "black" "degradated" "not underlined" "290" 0
652.886 1.497 3961736 "Exp.Trial" "MASKSCREEN_START_Abgas_E_DEG_N_252" 163 "[[241,318,384,384]]" 163 "Abgas" "blue" "degradated" "not underlined" "138" NA
655.958 1.096 3964808 "Exp.Trial" "MASKSCREEN_START_Gecko_K_DEG_U_314" 164 "[[303,380,384,384]]" 164 "Gecko" "black" "degradated" "underlined" "268" NA
659.436 1.554 3968286 "Exp.Trial" "MASKSCREEN_START_Gramm_K_DEG_U_538" 165 "[[527,604,384,384]]" 165 "Gramm" "black" "degradated" "underlined" "279" NA
662.669 1.691 3971519 "Exp.Trial" "MASKSCREEN_START_Garde_E_LET_U_364" 166 "[[353,430,384,384]]" 166 "Garde" "blue" "non-degradated" "underlined" "39" 0
674.34 1.408 3983190 "Exp.Trial" "MASKSCREEN_START_Wolle_E_DEG_N_376" 167 "[[365,442,384,384]]" 167 "Wolle" "blue" "degradated" "not underlined" "159" NA
677.101 1.497 3985951 "Exp.Trial" "MASKSCREEN_START_Sorte_K_DEG_N_327" 168 "[[316,393,384,384]]" 168 "Sorte" "black" "degradated" "not underlined" "299" 0
687.622 1.715 3996472 "Exp.Trial" "MASKSCREEN_START_Sehne_E_LET_U_376" 169 "[[365,442,384,384]]" 169 "Sehne" "blue" "non-degradated" "underlined" "26" NA
690.877 1.505 3999727 "Exp.Trial" "MASKSCREEN_START_Kugel_K_LET_U_314" 170 "[[303,380,384,384]]" 170 "Kugel" "black" "non-degradated" "underlined" "186" NA
693.917 1.297 4002767 "Exp.Trial" "MASKSCREEN_START_Gräte_K_DEG_U_240" 171 "[[229,306,384,384]]" 171 "Gräte" "black" "degradated" "underlined" "243" NA
697.719 1.15 4006569 "Exp.Trial" "MASKSCREEN_START_Flair_E_DEG_N_240" 172 "[[229,306,384,384]]" 172 "Flair" "blue" "degradated" "not underlined" "147" NA
700.48 1.24 4009330 "Exp.Trial" "MASKSCREEN_START_Tabak_K_DEG_N_290" 173 "[[279,356,384,384]]" 173 "Tabak" "black" "degradated" "not underlined" "316" NA
703.223 1.457 4012073 "Exp.Trial" "MASKSCREEN_START_Basar_K_LET_N_228" 174 "[[217,294,384,384]]" 174 "Basar" "black" "non-degradated" "not underlined" "203" 0
710.996 1.684 4019846 "Exp.Trial" "MASKSCREEN_START_Kater_K_DEG_U_277" 175 "[[266,343,384,384]]" 175 "Kater" "black" "degradated" "underlined" "252" NA
714.282 1.697 4023132 "Exp.Trial" "MASKSCREEN_START_Elite_K_LET_N_290" 176 "[[279,356,384,384]]" 176 "Elite" "black" "non-degradated" "not underlined" "233" NA
717.627 1.22 4026477 "Exp.Trial" "MASKSCREEN_START_Knabe_E_LET_U_252" 177 "[[241,318,384,384]]" 177 "Knabe" "blue" "non-degradated" "underlined" "1" NA
720.476 1.475 4029326 "Exp.Trial" "MASKSCREEN_START_Pfand_K_LET_N_414" 178 "[[403,480,384,384]]" 178 "Pfand" "black" "non-degradated" "not underlined" "201" NA
724.678 1.846 4033528 "Exp.Trial" "MASKSCREEN_START_Mappe_E_LET_U_252" 179 "[[241,318,384,384]]" 179 "Mappe" "blue" "non-degradated" "underlined" "32" 0
733.98 5.844 4042830 "Exp.Trial" "MASKSCREEN_START_Sühne_E_LET_U_748" 180 "[[737,814,384,384]]" 180 "Sühne" "blue" "non-degradated" "underlined" "18" NA
741.551 2.933 4050401 "Exp.Trial" "MASKSCREEN_START_Zobel_E_DEG_N_290" 181 "[[279,356,384,384]]" 181 "Zobel" "blue" "degradated" "not underlined" "158" NA
746.073 1.665 4054923 "Exp.Trial" "MASKSCREEN_START_Lehne_K_LET_N_401" 182 "[[390,467,384,384]]" 182 "Lehne" "black" "non-degradated" "not underlined" "224" NA
749.371 2.042 4058221 "Exp.Trial" "MASKSCREEN_START_Onkel_E_LET_U_228" 183 "[[217,294,384,384]]" 183 "Onkel" "blue" "non-degradated" "underlined" "35" NA
753.164 1.732 4062014 "Exp.Trial" "MASKSCREEN_START_Götze_K_LET_U_488" 184 "[[477,554,384,384]]" 184 "Götze" "black" "non-degradated" "underlined" "179" NA
756.441 1.164 4065291 "Exp.Trial" "MASKSCREEN_START_Bombe_E_DEG_N_265" 185 "[[254,331,384,384]]" 185 "Bombe" "blue" "degradated" "not underlined" "129" NA
759.11 1.152 4067960 "Exp.Trial" "MASKSCREEN_START_Kajak_K_LET_U_314" 186 "[[303,380,384,384]]" 186 "Kajak" "black" "non-degradated" "underlined" "190" NA
761.872 1.824 4070722 "Exp.Trial" "MASKSCREEN_START_Achse_K_LET_U_252" 187 "[[241,318,384,384]]" 187 "Achse" "black" "non-degradated" "underlined" "172" 0
769.286 1.023 4078136 "Exp.Trial" "MASKSCREEN_START_Wunde_K_LET_N_290" 188 "[[279,356,384,384]]" 188 "Wunde" "black" "non-degradated" "not underlined" "202" NA
771.903 1.51 4080753 "Exp.Trial" "MASKSCREEN_START_Matte_E_DEG_N_240" 189 "[[229,306,384,384]]" 189 "Matte" "blue" "degradated" "not underlined" "143" NA
774.816 1.607 4083666 "Exp.Trial" "MASKSCREEN_START_Aktie_K_DEG_U_265" 190 "[[254,331,384,384]]" 190 "Aktie" "black" "degradated" "underlined" "248" NA
777.856 1.384 4086706 "Exp.Trial" "MASKSCREEN_START_Manko_K_LET_U_265" 191 "[[254,331,384,384]]" 191 "Manko" "black" "non-degradated" "underlined" "173" NA
780.657 1.633 4089507 "Exp.Trial" "MASKSCREEN_START_Ungar_E_DEG_U_327" 192 "[[316,393,384,384]]" 192 "Ungar" "blue" "degradated" "underlined" "95" NA
784.646 1.432 4093496 "Exp.Trial" "MASKSCREEN_START_Laken_K_DEG_N_228" 193 "[[217,294,384,384]]" 193 "Laken" "black" "degradated" "not underlined" "298" NA
787.714 1.262 4096564 "Exp.Trial" "MASKSCREEN_START_Tolle_K_DEG_N_513" 194 "[[502,579,384,384]]" 194 "Tolle" "black" "degradated" "not underlined" "300" NA
790.369 1.529 4099219 "Exp.Trial" "MASKSCREEN_START_Quint_K_DEG_U_513" 195 "[[502,579,384,384]]" 195 "Quint" "black" "degradated" "underlined" "265" NA
793.371 1.061 4102221 "Exp.Trial" "MASKSCREEN_START_Datei_E_DEG_N_277" 196 "[[266,343,384,384]]" 196 "Datei" "blue" "degradated" "not underlined" "140" NA
795.919 3.203 4104769 "Exp.Trial" "MASKSCREEN_START_Kreml_K_LET_N_488" 197 "[[477,554,384,384]]" 197 "Kreml" "black" "non-degradated" "not underlined" "222" NA
800.725 1.545 4109575 "Exp.Trial" "MASKSCREEN_START_Linse_K_LET_U_215" 198 "[[204,281,384,384]]" 198 "Linse" "black" "non-degradated" "underlined" "162" NA
803.891 1.403 4112741 "Exp.Trial" "MASKSCREEN_START_Kiste_K_LET_U_401" 199 "[[390,467,384,384]]" 199 "Kiste" "black" "non-degradated" "underlined" "187" NA
806.819 1.587 4115669 "Exp.Trial" "MASKSCREEN_START_Amsel_E_DEG_N_240" 200 "[[229,306,384,384]]" 200 "Amsel" "blue" "degradated" "not underlined" "137" NA
809.972 1.325 4118822 "Exp.Trial" "MASKSCREEN_START_Szene_E_LET_U_240" 201 "[[229,306,384,384]]" 201 "Szene" "blue" "non-degradated" "underlined" "23" NA
813.67 1.479 4122520 "Exp.Trial" "MASKSCREEN_START_Lauch_K_LET_U_500" 202 "[[489,566,384,384]]" 202 "Lauch" "black" "non-degradated" "underlined" "197" NA
816.571 1.134 4125421 "Exp.Trial" "MASKSCREEN_START_Vogel_K_LET_N_228" 203 "[[217,294,384,384]]" 203 "Vogel" "black" "non-degradated" "not underlined" "206" NA
819.943 1.811 4128793 "Exp.Trial" "MASKSCREEN_START_Erlös_E_LET_N_476" 204 "[[465,542,384,384]]" 204 "Erlös" "blue" "non-degradated" "not underlined" "47" NA
823.263 1.221 4132113 "Exp.Trial" "MASKSCREEN_START_Viper_E_LET_U_364" 205 "[[353,430,384,384]]" 205 "Viper" "blue" "non-degradated" "underlined" "19" 0
829.529 2.928 4138379 "Exp.Trial" "MASKSCREEN_START_Zeder_K_DEG_N_265" 206 "[[254,331,384,384]]" 206 "Zeder" "black" "degradated" "not underlined" "304" 0
839.11 2.139 4147960 "Exp.Trial" "MASKSCREEN_START_Dekan_E_LET_U_265" 207 "[[254,331,384,384]]" 207 "Dekan" "blue" "non-degradated" "underlined" "11" 0
848.204 1.503 4157054 "Exp.Trial" "MASKSCREEN_START_Geist_E_DEG_N_277" 208 "[[266,343,384,384]]" 208 "Geist" "blue" "degradated" "not underlined" "134" NA
852.463 1.414 4161313 "Exp.Trial" "MASKSCREEN_START_Malve_K_DEG_U_339" 209 "[[328,405,384,384]]" 209 "Malve" "black" "degradated" "underlined" "241" NA
855.484 1.608 4164334 "Exp.Trial" "MASKSCREEN_START_China_K_DEG_U_302" 210 "[[291,368,384,384]]" 210 "China" "black" "degradated" "underlined" "257" NA
858.77 1.569 4167620 "Exp.Trial" "MASKSCREEN_START_Troll_E_LET_N_426" 211 "[[415,492,384,384]]" 211 "Troll" "blue" "non-degradated" "not underlined" "57" NA
862.009 1.055 4170859 "Exp.Trial" "MASKSCREEN_START_Abend_E_LET_U_252" 212 "[[241,318,384,384]]" 212 "Abend" "blue" "non-degradated" "underlined" "7" NA
864.651 0.92 4173501 "Exp.Trial" "MASKSCREEN_START_Taube_E_LET_N_290" 213 "[[279,356,384,384]]" 213 "Taube" "blue" "non-degradated" "not underlined" "41" NA
868.548 1.065 4177398 "Exp.Trial" "MASKSCREEN_START_Ikone_K_DEG_U_314" 214 "[[303,380,384,384]]" 214 "Ikone" "black" "degradated" "underlined" "267" NA
871.044 1.994 4179894 "Exp.Trial" "MASKSCREEN_START_Gicht_E_LET_U_401" 215 "[[390,467,384,384]]" 215 "Gicht" "blue" "non-degradated" "underlined" "33" NA
874.423 2.145 4183273 "Exp.Trial" "MASKSCREEN_START_Kluft_K_DEG_U_277" 216 "[[266,343,384,384]]" 216 "Kluft" "black" "degradated" "underlined" "258" NA
878.266 1.694 4187116 "Exp.Trial" "MASKSCREEN_START_Henne_K_DEG_N_228" 217 "[[217,294,384,384]]" 217 "Henne" "black" "degradated" "not underlined" "320" NA
882.415 1.378 4191265 "Exp.Trial" "MASKSCREEN_START_Mähre_K_LET_U_401" 218 "[[390,467,384,384]]" 218 "Mähre" "black" "non-degradated" "underlined" "167" NA
887.262 1.818 4196112 "Exp.Trial" "MASKSCREEN_START_Druck_E_LET_N_252" 219 "[[241,318,384,384]]" 219 "Druck" "blue" "non-degradated" "not underlined" "75" NA
890.647 1.343 4199497 "Exp.Trial" "MASKSCREEN_START_Plane_K_DEG_U_414" 220 "[[403,480,384,384]]" 220 "Plane" "black" "degradated" "underlined" "277" NA
895.127 2.15 4203977 "Exp.Trial" "MASKSCREEN_START_Säule_E_DEG_N_302" 221 "[[291,368,384,384]]" 221 "Säule" "blue" "degradated" "not underlined" "126" NA
898.666 1.42 4207516 "Exp.Trial" "MASKSCREEN_START_Treff_K_DEG_U_302" 222 "[[291,368,384,384]]" 222 "Treff" "black" "degradated" "underlined" "270" NA
901.739 1.068 4210589 "Exp.Trial" "MASKSCREEN_START_Rippe_E_LET_N_327" 223 "[[316,393,384,384]]" 223 "Rippe" "blue" "non-degradated" "not underlined" "56" NA
906.22 2.062 4215070 "Exp.Trial" "MASKSCREEN_START_Sigma_K_LET_N_302" 224 "[[291,368,384,384]]" 224 "Sigma" "black" "non-degradated" "not underlined" "234" NA
909.984 1.218 4218834 "Exp.Trial" "MASKSCREEN_START_Pfahl_K_LET_U_240" 225 "[[229,306,384,384]]" 225 "Pfahl" "black" "non-degradated" "underlined" "189" NA
912.759 0.99 4221609 "Exp.Trial" "MASKSCREEN_START_Beule_K_DEG_U_327" 226 "[[316,393,384,384]]" 226 "Beule" "black" "degradated" "underlined" "266" NA
915.361 0.906 4224211 "Exp.Trial" "MASKSCREEN_START_Drama_K_DEG_N_290" 227 "[[279,356,384,384]]" 227 "Drama" "black" "degradated" "not underlined" "314" NA
917.817 1.056 4226667 "Exp.Trial" "MASKSCREEN_START_Klotz_E_DEG_N_252" 228 "[[241,318,384,384]]" 228 "Klotz" "blue" "degradated" "not underlined" "136" 0
925.079 1.253 4233929 "Exp.Trial" "MASKSCREEN_START_Sitte_E_DEG_N_290" 229 "[[279,356,384,384]]" 229 "Sitte" "blue" "degradated" "not underlined" "151" NA
929.103 1.385 4237953 "Exp.Trial" "MASKSCREEN_START_Polka_E_DEG_U_525" 230 "[[514,591,384,384]]" 230 "Polka" "blue" "degradated" "underlined" "102" 0
937.965 1.413 4246815 "Exp.Trial" "MASKSCREEN_START_Alter_K_DEG_N_228" 231 "[[217,294,384,384]]" 231 "Alter" "black" "degradated" "not underlined" "296" 0
947.763 2.087 4256613 "Exp.Trial" "MASKSCREEN_START_Madam_E_LET_U_252" 232 "[[241,318,384,384]]" 232 "Madam" "blue" "non-degradated" "underlined" "4" NA
952.397 1.143 4261247 "Exp.Trial" "MASKSCREEN_START_Pirat_E_DEG_N_215" 233 "[[204,281,384,384]]" 233 "Pirat" "blue" "degradated" "not underlined" "133" NA
954.986 1.339 4263836 "Exp.Trial" "MASKSCREEN_START_Villa_K_LET_N_314" 234 "[[303,380,384,384]]" 234 "Villa" "black" "non-degradated" "not underlined" "240" NA
958.046 1.239 4266896 "Exp.Trial" "MASKSCREEN_START_Motte_E_LET_N_252" 235 "[[241,318,384,384]]" 235 "Motte" "blue" "non-degradated" "not underlined" "63" NA
962.785 1.29 4271635 "Exp.Trial" "MASKSCREEN_START_Radar_K_DEG_N_228" 236 "[[217,294,384,384]]" 236 "Radar" "black" "degradated" "not underlined" "306" 0
970.061 1.364 4278911 "Exp.Trial" "MASKSCREEN_START_Karat_E_LET_U_339" 237 "[[328,405,384,384]]" 237 "Karat" "blue" "non-degradated" "underlined" "37" NA
973.094 1.855 4281944 "Exp.Trial" "MASKSCREEN_START_Hafer_K_LET_U_203" 238 "[[192,269,384,384]]" 238 "Hafer" "black" "non-degradated" "underlined" "177" NA
976.559 1.793 4285409 "Exp.Trial" "MASKSCREEN_START_Jubel_E_LET_U_240" 239 "[[229,306,384,384]]" 239 "Jubel" "blue" "non-degradated" "underlined" "12" NA
980.841 1.091 4289691 "Exp.Trial" "MASKSCREEN_START_Figur_K_LET_N_364" 240 "[[353,430,384,384]]" 240 "Figur" "black" "non-degradated" "not underlined" "232" 0
986.556 1.187 4295406 "Exp.Trial" "MASKSCREEN_START_Stola_E_DEG_N_352" 241 "[[341,418,384,384]]" 241 "Stola" "blue" "degradated" "not underlined" "124" NA
989.345 1.212 4298195 "Exp.Trial" "MASKSCREEN_START_Krebs_E_LET_U_228" 242 "[[217,294,384,384]]" 242 "Krebs" "blue" "non-degradated" "underlined" "29" NA
992.65 1.199 4301500 "Exp.Trial" "MASKSCREEN_START_Wüste_K_DEG_U_277" 243 "[[266,343,384,384]]" 243 "Wüste" "black" "degradated" "underlined" "261" NA
997.087 1.601 4305937 "Exp.Trial" "MASKSCREEN_START_Gebet_E_DEG_N_339" 244 "[[328,405,384,384]]" 244 "Gebet" "blue" "degradated" "not underlined" "156" NA
1000.482 2.405 4309332 "Exp.Trial" "MASKSCREEN_START_Kongo_E_LET_U_228" 245 "[[217,294,384,384]]" 245 "Kongo" "blue" "non-degradated" "underlined" "15" NA
1005.434 1.481 4314284 "Exp.Trial" "MASKSCREEN_START_Wuchs_E_DEG_U_228" 246 "[[217,294,384,384]]" 246 "Wuchs" "blue" "degradated" "underlined" "85" NA
1008.517 1.933 4317367 "Exp.Trial" "MASKSCREEN_START_Juwel_E_DEG_N_426" 247 "[[415,492,384,384]]" 247 "Juwel" "blue" "degradated" "not underlined" "142" NA
1013.164 1.518 4322014 "Exp.Trial" "MASKSCREEN_START_Wärme_E_LET_U_252" 248 "[[241,318,384,384]]" 248 "Wärme" "blue" "non-degradated" "underlined" "21" NA
1017.949 2.035 4326799 "Exp.Trial" "MASKSCREEN_START_Sumpf_K_LET_U_252" 249 "[[241,318,384,384]]" 249 "Sumpf" "black" "non-degradated" "underlined" "182" NA
1021.461 1.367 4330311 "Exp.Trial" "MASKSCREEN_START_Probe_E_DEG_U_240" 250 "[[229,306,384,384]]" 250 "Probe" "blue" "degradated" "underlined" "117" NA
1025.656 1.99 4334506 "Exp.Trial" "MASKSCREEN_START_Teint_K_LET_N_302" 251 "[[291,368,384,384]]" 251 "Teint" "black" "non-degradated" "not underlined" "229" NA
1029.154 1.913 4338004 "Exp.Trial" "MASKSCREEN_START_Zuzug_E_DEG_U_327" 252 "[[316,393,384,384]]" 252 "Zuzug" "blue" "degradated" "underlined" "106" NA
1032.726 1.883 4341576 "Exp.Trial" "MASKSCREEN_START_Miene_E_DEG_N_265" 253 "[[254,331,384,384]]" 253 "Miene" "blue" "degradated" "not underlined" "155" NA
1036.024 1.49 4344874 "Exp.Trial" "MASKSCREEN_START_Nagel_E_LET_N_376" 254 "[[365,442,384,384]]" 254 "Nagel" "blue" "non-degradated" "not underlined" "65" NA
1038.934 1.619 4347784 "Exp.Trial" "MASKSCREEN_START_Griff_K_LET_N_364" 255 "[[353,430,384,384]]" 255 "Griff" "black" "non-degradated" "not underlined" "225" NA
1041.952 1.544 4350802 "Exp.Trial" "MASKSCREEN_START_Lunge_E_DEG_U_476" 256 "[[465,542,384,384]]" 256 "Lunge" "blue" "degradated" "underlined" "81" NA
1044.9 1.618 4353750 "Exp.Trial" "MASKSCREEN_START_Panne_K_DEG_U_252" 257 "[[241,318,384,384]]" 257 "Panne" "black" "degradated" "underlined" "276" NA
1049.314 1.616 4358164 "Exp.Trial" "MASKSCREEN_START_Obhut_E_LET_U_389" 258 "[[378,455,384,384]]" 258 "Obhut" "blue" "non-degradated" "underlined" "40" NA
1053.379 1.786 4362229 "Exp.Trial" "MASKSCREEN_START_Drill_E_DEG_N_339" 259 "[[328,405,384,384]]" 259 "Drill" "blue" "degradated" "not underlined" "128" NA
1057.062 1.863 4365912 "Exp.Trial" "MASKSCREEN_START_Panda_E_LET_U_265" 260 "[[254,331,384,384]]" 260 "Panda" "blue" "non-degradated" "underlined" "31" NA
1060.421 3.276 4369271 "Exp.Trial" "MASKSCREEN_START_Atoll_E_DEG_U_513" 261 "[[502,579,384,384]]" 261 "Atoll" "blue" "degradated" "underlined" "98" NA
1065.319 1.413 4374169 "Exp.Trial" "MASKSCREEN_START_Enkel_K_LET_N_277" 262 "[[266,343,384,384]]" 262 "Enkel" "black" "non-degradated" "not underlined" "205" NA
1068.979 1.218 4377829 "Exp.Trial" "MASKSCREEN_START_Belag_K_LET_N_252" 263 "[[241,318,384,384]]" 263 "Belag" "black" "non-degradated" "not underlined" "218" NA
1071.812 5.295 4380662 "Exp.Trial" "MASKSCREEN_START_Zinke_K_LET_U_240" 264 "[[229,306,384,384]]" 264 "Zinke" "black" "non-degradated" "underlined" "168" NA
1078.821 1.561 4387671 "Exp.Trial" "MASKSCREEN_START_Felge_E_DEG_N_401" 265 "[[390,467,384,384]]" 265 "Felge" "blue" "degradated" "not underlined" "160" NA
1081.895 2.45 4390745 "Exp.Trial" "MASKSCREEN_START_Zwerg_E_DEG_U_252" 266 "[[241,318,384,384]]" 266 "Zwerg" "blue" "degradated" "underlined" "93" NA
1086.018 1.791 4394868 "Exp.Trial" "MASKSCREEN_START_Büste_E_LET_U_302" 267 "[[291,368,384,384]]" 267 "Büste" "blue" "non-degradated" "underlined" "25" NA
1089.224 1.382 4398074 "Exp.Trial" "MASKSCREEN_START_Block_E_LET_N_414" 268 "[[403,480,384,384]]" 268 "Block" "blue" "non-degradated" "not underlined" "60" 0
1096.693 0.9 4405543 "Exp.Trial" "MASKSCREEN_START_Pilot_E_DEG_N_265" 269 "[[254,331,384,384]]" 269 "Pilot" "blue" "degradated" "not underlined" "132" NA
1098.942 1.074 4407792 "Exp.Trial" "MASKSCREEN_START_Delta_E_DEG_N_302" 270 "[[291,368,384,384]]" 270 "Delta" "blue" "degradated" "not underlined" "131" NA
1102.393 1.816 4411243 "Exp.Trial" "MASKSCREEN_START_Quast_E_LET_N_550" 271 "[[539,616,384,384]]" 271 "Quast" "blue" "non-degradated" "not underlined" "61" NA
1105.766 1.249 4414616 "Exp.Trial" "MASKSCREEN_START_Blatt_E_DEG_U_228" 272 "[[217,294,384,384]]" 272 "Blatt" "blue" "degradated" "underlined" "115" NA
1108.859 1.449 4417709 "Exp.Trial" "MASKSCREEN_START_These_E_LET_N_376" 273 "[[365,442,384,384]]" 273 "These" "blue" "non-degradated" "not underlined" "53" NA
1111.781 1.716 4420631 "Exp.Trial" "MASKSCREEN_START_Witwe_E_LET_N_352" 274 "[[341,418,384,384]]" 274 "Witwe" "blue" "non-degradated" "not underlined" "64" NA
1115.146 1.36 4423996 "Exp.Trial" "MASKSCREEN_START_Major_K_LET_U_252" 275 "[[241,318,384,384]]" 275 "Major" "black" "non-degradated" "underlined" "195" NA
1118.79 1.428 4427640 "Exp.Trial" "MASKSCREEN_START_Notiz_K_DEG_U_302" 276 "[[291,368,384,384]]" 276 "Notiz" "black" "degradated" "underlined" "242" NA
1123.152 1.655 4432002 "Exp.Trial" "MASKSCREEN_START_Kutte_E_LET_U_240" 277 "[[229,306,384,384]]" 277 "Kutte" "blue" "non-degradated" "underlined" "9" NA
1126.418 1.238 4435268 "Exp.Trial" "MASKSCREEN_START_Baske_E_LET_N_228" 278 "[[217,294,384,384]]" 278 "Baske" "blue" "non-degradated" "not underlined" "78" NA
1130.447 2.391 4439297 "Exp.Trial" "MASKSCREEN_START_Viola_K_LET_N_302" 279 "[[291,368,384,384]]" 279 "Viola" "black" "non-degradated" "not underlined" "217" NA
1134.532 1.715 4443382 "Exp.Trial" "MASKSCREEN_START_Lauge_K_LET_N_240" 280 "[[229,306,384,384]]" 280 "Lauge" "black" "non-degradated" "not underlined" "236" NA
1137.842 3.1 4446692 "Exp.Trial" "MASKSCREEN_START_Liste_E_DEG_U_426" 281 "[[415,492,384,384]]" 281 "Liste" "blue" "degradated" "underlined" "99" 0
1151.557 2.708 4460407 "Exp.Trial" "MASKSCREEN_START_Etage_K_DEG_U_228" 282 "[[217,294,384,384]]" 282 "Etage" "black" "degradated" "underlined" "260" NA
1157.199 1.28 4466049 "Exp.Trial" "MASKSCREEN_START_Twist_E_LET_N_314" 283 "[[303,380,384,384]]" 283 "Twist" "blue" "non-degradated" "not underlined" "79" NA
1160.134 1.247 4468984 "Exp.Trial" "MASKSCREEN_START_Lücke_E_LET_N_327" 284 "[[316,393,384,384]]" 284 "Lücke" "blue" "non-degradated" "not underlined" "80" NA
1163.883 1.708 4472733 "Exp.Trial" "MASKSCREEN_START_Kehle_K_DEG_N_277" 285 "[[266,343,384,384]]" 285 "Kehle" "black" "degradated" "not underlined" "319" NA
1167.017 1.336 4475867 "Exp.Trial" "MASKSCREEN_START_Müsli_K_LET_N_426" 286 "[[415,492,384,384]]" 286 "Müsli" "black" "non-degradated" "not underlined" "210" NA
1170.821 1.529 4479671 "Exp.Trial" "MASKSCREEN_START_Depot_E_DEG_N_252" 287 "[[241,318,384,384]]" 287 "Depot" "blue" "degradated" "not underlined" "135" NA
1175.063 1.866 4483913 "Exp.Trial" "MASKSCREEN_START_Decke_E_DEG_U_414" 288 "[[403,480,384,384]]" 288 "Decke" "blue" "degradated" "underlined" "86" NA
1178.348 1.272 4487198 "Exp.Trial" "MASKSCREEN_START_Hagel_K_LET_N_438" 289 "[[427,504,384,384]]" 289 "Hagel" "black" "non-degradated" "not underlined" "227" 0
1187.171 1.394 4496021 "Exp.Trial" "MASKSCREEN_START_Otter_E_DEG_U_290" 290 "[[279,356,384,384]]" 290 "Otter" "blue" "degradated" "underlined" "112" NA
1189.947 2.402 4498797 "Exp.Trial" "MASKSCREEN_START_Opfer_E_DEG_N_339" 291 "[[328,405,384,384]]" 291 "Opfer" "blue" "degradated" "not underlined" "157" NA
1194.845 1.349 4503695 "Exp.Trial" "MASKSCREEN_START_Zitat_K_DEG_N_376" 292 "[[365,442,384,384]]" 292 "Zitat" "black" "degradated" "not underlined" "311" 0
1201.907 2.903 4510757 "Exp.Trial" "MASKSCREEN_START_Quart_E_DEG_N_414" 293 "[[403,480,384,384]]" 293 "Quart" "blue" "degradated" "not underlined" "146" NA
1207.384 2.84 4516234 "Exp.Trial" "MASKSCREEN_START_Wanst_K_DEG_N_476" 294 "[[465,542,384,384]]" 294 "Wanst" "black" "degradated" "not underlined" "297" NA
1211.772 1.527 4520622 "Exp.Trial" "MASKSCREEN_START_Paket_E_LET_N_352" 295 "[[341,418,384,384]]" 295 "Paket" "blue" "non-degradated" "not underlined" "77" NA
1214.906 3.133 4523756 "Exp.Trial" "MASKSCREEN_START_Dicke_E_LET_N_314" 296 "[[303,380,384,384]]" 296 "Dicke" "blue" "non-degradated" "not underlined" "43" NA
1219.459 1.546 4528309 "Exp.Trial" "MASKSCREEN_START_Kokon_E_LET_N_228" 297 "[[217,294,384,384]]" 297 "Kokon" "blue" "non-degradated" "not underlined" "52" 0
1228.141 2.207 4536991 "Exp.Trial" "MASKSCREEN_START_Buchs_E_LET_U_426" 298 "[[415,492,384,384]]" 298 "Buchs" "blue" "non-degradated" "underlined" "5" NA
1232.006 2.083 4540856 "Exp.Trial" "MASKSCREEN_START_Fauna_E_LET_N_339" 299 "[[328,405,384,384]]" 299 "Fauna" "blue" "non-degradated" "not underlined" "68" NA
1235.63 1.751 4544480 "Exp.Trial" "MASKSCREEN_START_Werft_E_DEG_U_376" 300 "[[365,442,384,384]]" 300 "Werft" "blue" "degradated" "underlined" "87" NA
1238.923 1.426 4547773 "Exp.Trial" "MASKSCREEN_START_Waage_K_DEG_U_302" 301 "[[291,368,384,384]]" 301 "Waage" "black" "degradated" "underlined" "255" 0
1246.233 1.27 4555083 "Exp.Trial" "MASKSCREEN_START_Ruder_K_LET_N_252" 302 "[[241,318,384,384]]" 302 "Ruder" "black" "non-degradated" "not underlined" "228" NA
1249.152 1.946 4558002 "Exp.Trial" "MASKSCREEN_START_Sense_E_LET_N_252" 303 "[[241,318,384,384]]" 303 "Sense" "blue" "non-degradated" "not underlined" "44" 0
1259.316 1.251 4568166 "Exp.Trial" "MASKSCREEN_START_Runde_E_DEG_U_228" 304 "[[217,294,384,384]]" 304 "Runde" "blue" "degradated" "underlined" "108" NA
1263.221 1.867 4572071 "Exp.Trial" "MASKSCREEN_START_Hüter_E_LET_N_215" 305 "[[204,281,384,384]]" 305 "Hüter" "blue" "non-degradated" "not underlined" "66" NA
1266.771 1.106 4575621 "Exp.Trial" "MASKSCREEN_START_Zecke_K_LET_U_240" 306 "[[229,306,384,384]]" 306 "Zecke" "black" "non-degradated" "underlined" "170" NA
1269.842 1.129 4578692 "Exp.Trial" "MASKSCREEN_START_Spott_K_LET_U_265" 307 "[[254,331,384,384]]" 307 "Spott" "black" "non-degradated" "underlined" "180" NA
1272.499 1.112 4581349 "Exp.Trial" "MASKSCREEN_START_Minze_K_DEG_N_252" 308 "[[241,318,384,384]]" 308 "Minze" "black" "degradated" "not underlined" "303" 0
1278.786 1.599 4587636 "Exp.Trial" "MASKSCREEN_START_Party_K_LET_U_376" 309 "[[365,442,384,384]]" 309 "Party" "black" "non-degradated" "underlined" "184" NA
1281.852 1.597 4590702 "Exp.Trial" "MASKSCREEN_START_Heide_K_LET_U_376" 310 "[[365,442,384,384]]" 310 "Heide" "black" "non-degradated" "underlined" "191" NA
1285.391 1.921 4594241 "Exp.Trial" "MASKSCREEN_START_Pulle_E_LET_N_339" 311 "[[328,405,384,384]]" 311 "Pulle" "blue" "non-degradated" "not underlined" "48" NA
1289.108 1.979 4597958 "Exp.Trial" "MASKSCREEN_START_Tarif_E_DEG_U_215" 312 "[[204,281,384,384]]" 312 "Tarif" "blue" "degradated" "underlined" "90" 0
1296.921 1.126 4605771 "Exp.Trial" "MASKSCREEN_START_Nylon_E_DEG_N_228" 313 "[[217,294,384,384]]" 313 "Nylon" "blue" "degradated" "not underlined" "139" NA
1300.239 1.7 4609089 "Exp.Trial" "MASKSCREEN_START_Bürde_K_LET_N_290" 314 "[[279,356,384,384]]" 314 "Bürde" "black" "non-degradated" "not underlined" "238" NA
1303.606 1.479 4612456 "Exp.Trial" "MASKSCREEN_START_Biest_E_DEG_U_314" 315 "[[303,380,384,384]]" 315 "Biest" "blue" "degradated" "underlined" "114" NA
1306.706 1.394 4615556 "Exp.Trial" "MASKSCREEN_START_Würde_E_DEG_U_376" 316 "[[365,442,384,384]]" 316 "Würde" "blue" "degradated" "underlined" "104" NA
1309.732 2.11 4618582 "Exp.Trial" "MASKSCREEN_START_Orbit_K_DEG_N_228" 317 "[[217,294,384,384]]" 317 "Orbit" "black" "degradated" "not underlined" "287" NA
1313.49 1.859 4622340 "Exp.Trial" "MASKSCREEN_START_Gusto_K_LET_N_476" 318 "[[465,542,384,384]]" 318 "Gusto" "black" "non-degradated" "not underlined" "220" 0
1321.203 1.928 4630053 "Exp.Trial" "MASKSCREEN_START_Phase_E_LET_N_228" 319 "[[217,294,384,384]]" 319 "Phase" "blue" "non-degradated" "not underlined" "69" 0
1331.401 1.659 4640251 "Exp.Trial" "MASKSCREEN_START_Bowle_K_DEG_U_215" 320 "[[204,281,384,384]]" 320 "Bowle" "black" "degradated" "underlined" "269" NA
