"onset" "duration" "sample" "trial_type" "eventIdentifier" "event_nr" "aoi" "trial" "target_word" "color" "mask" "underlining" "sentenceNr" "response"
0 2.4 3946387 "Exp.Trial" "MASKSCREEN_START_Puder_K_DEG_U_389" 1 "[[378,455,384,384]]" 1 "Puder" "black" "degradated" "underlined" "181" NA
4.269 3.429 3950656 "Exp.Trial" "MASKSCREEN_START_Kerze_K_DEG_U_277" 2 "[[266,343,384,384]]" 2 "Kerze" "black" "degradated" "underlined" "165" NA
10.587 3.191 3956974 "Exp.Trial" "MASKSCREEN_START_Markt_E_DEG_N_302" 3 "[[291,368,384,384]]" 3 "Markt" "blue" "degradated" "not underlined" "74" NA
15.421 1.773 3961808 "Exp.Trial" "MASKSCREEN_START_Musik_K_DEG_U_438" 4 "[[427,504,384,384]]" 4 "Musik" "black" "degradated" "underlined" "200" NA
19.105 1.997 3965492 "Exp.Trial" "MASKSCREEN_START_Rinde_E_LET_N_314" 5 "[[303,380,384,384]]" 5 "Rinde" "blue" "non-degradated" "not underlined" "148" NA
22.908 1.919 3969295 "Exp.Trial" "MASKSCREEN_START_Seife_E_DEG_U_290" 6 "[[279,356,384,384]]" 6 "Seife" "blue" "degradated" "underlined" "6" NA
26.519 2.785 3972906 "Exp.Trial" "MASKSCREEN_START_Gräte_K_LET_U_240" 7 "[[229,306,384,384]]" 7 "Gräte" "black" "non-degradated" "underlined" "243" NA
32.228 2.26 3978615 "Exp.Trial" "MASKSCREEN_START_Genre_K_LET_U_228" 8 "[[217,294,384,384]]" 8 "Genre" "black" "non-degradated" "underlined" "249" NA
36.125 2.446 3982512 "Exp.Trial" "MASKSCREEN_START_China_K_LET_U_302" 9 "[[291,368,384,384]]" 9 "China" "black" "non-degradated" "underlined" "257" NA
40.214 2.186 3986601 "Exp.Trial" "MASKSCREEN_START_Viola_K_DEG_N_302" 10 "[[291,368,384,384]]" 10 "Viola" "black" "degradated" "not underlined" "217" NA
44.29 2.921 3990677 "Exp.Trial" "MASKSCREEN_START_Sippe_K_DEG_U_414" 11 "[[403,480,384,384]]" 11 "Sippe" "black" "degradated" "underlined" "188" NA
48.778 3.221 3995165 "Exp.Trial" "MASKSCREEN_START_Härte_E_DEG_N_314" 12 "[[303,380,384,384]]" 12 "Härte" "blue" "degradated" "not underlined" "72" 0
63.587 2.131 4009974 "Exp.Trial" "MASKSCREEN_START_Zwerg_E_LET_U_252" 13 "[[241,318,384,384]]" 13 "Zwerg" "blue" "non-degradated" "underlined" "93" NA
67.377 1.861 4013764 "Exp.Trial" "MASKSCREEN_START_Möbel_K_DEG_N_290" 14 "[[279,356,384,384]]" 14 "Möbel" "black" "degradated" "not underlined" "226" NA
71.061 3.501 4017448 "Exp.Trial" "MASKSCREEN_START_Dekan_E_DEG_U_265" 15 "[[254,331,384,384]]" 15 "Dekan" "blue" "degradated" "underlined" "11" NA
76.18 2.05 4022567 "Exp.Trial" "MASKSCREEN_START_Zecke_K_DEG_U_240" 16 "[[229,306,384,384]]" 16 "Zecke" "black" "degradated" "underlined" "170" NA
79.877 3.226 4026264 "Exp.Trial" "MASKSCREEN_START_Quint_K_LET_U_513" 17 "[[502,579,384,384]]" 17 "Quint" "black" "non-degradated" "underlined" "265" NA
84.769 1.764 4031156 "Exp.Trial" "MASKSCREEN_START_Rispe_K_LET_U_376" 18 "[[365,442,384,384]]" 18 "Rispe" "black" "non-degradated" "underlined" "275" NA
89.298 3.589 4035685 "Exp.Trial" "MASKSCREEN_START_Abgas_E_LET_N_252" 19 "[[241,318,384,384]]" 19 "Abgas" "blue" "non-degradated" "not underlined" "138" NA
94.476 2.483 4040863 "Exp.Trial" "MASKSCREEN_START_Ärmel_E_DEG_N_376" 20 "[[365,442,384,384]]" 20 "Ärmel" "blue" "degradated" "not underlined" "76" 0
112.473 4.934 4058860 "Exp.Trial" "MASKSCREEN_START_Prinz_K_DEG_U_265" 21 "[[254,331,384,384]]" 21 "Prinz" "black" "degradated" "underlined" "166" NA
119.109 2.832 4065496 "Exp.Trial" "MASKSCREEN_START_Herde_K_DEG_N_277" 22 "[[266,343,384,384]]" 22 "Herde" "black" "degradated" "not underlined" "204" NA
124.06 2.224 4070447 "Exp.Trial" "MASKSCREEN_START_Lücke_E_DEG_N_327" 23 "[[316,393,384,384]]" 23 "Lücke" "blue" "degradated" "not underlined" "80" NA
127.852 3.349 4074239 "Exp.Trial" "MASKSCREEN_START_Mafia_E_DEG_U_314" 24 "[[303,380,384,384]]" 24 "Mafia" "blue" "degradated" "underlined" "16" NA
132.877 1.664 4079264 "Exp.Trial" "MASKSCREEN_START_Linse_K_DEG_U_215" 25 "[[204,281,384,384]]" 25 "Linse" "black" "degradated" "underlined" "162" NA
136.202 1.896 4082589 "Exp.Trial" "MASKSCREEN_START_Anbau_K_LET_U_302" 26 "[[291,368,384,384]]" 26 "Anbau" "black" "non-degradated" "underlined" "250" NA
140.845 2.557 4087232 "Exp.Trial" "MASKSCREEN_START_Reibe_K_LET_N_476" 27 "[[465,542,384,384]]" 27 "Reibe" "black" "non-degradated" "not underlined" "295" NA
145.038 1.708 4091425 "Exp.Trial" "MASKSCREEN_START_Notiz_K_LET_U_302" 28 "[[291,368,384,384]]" 28 "Notiz" "black" "non-degradated" "underlined" "242" NA
148.397 3.266 4094784 "Exp.Trial" "MASKSCREEN_START_Ungar_E_LET_U_327" 29 "[[316,393,384,384]]" 29 "Ungar" "blue" "non-degradated" "underlined" "95" NA
153.383 2.665 4099770 "Exp.Trial" "MASKSCREEN_START_Wanst_K_LET_N_476" 30 "[[465,542,384,384]]" 30 "Wanst" "black" "non-degradated" "not underlined" "297" NA
157.666 2.122 4104053 "Exp.Trial" "MASKSCREEN_START_Hecke_K_DEG_N_228" 31 "[[217,294,384,384]]" 31 "Hecke" "black" "degradated" "not underlined" "230" NA
161.514 1.521 4107901 "Exp.Trial" "MASKSCREEN_START_Fülle_K_LET_U_290" 32 "[[279,356,384,384]]" 32 "Fülle" "black" "non-degradated" "underlined" "271" NA
164.748 3.591 4111135 "Exp.Trial" "MASKSCREEN_START_Laich_E_LET_U_327" 33 "[[316,393,384,384]]" 33 "Laich" "blue" "non-degradated" "underlined" "113" NA
169.938 1.735 4116325 "Exp.Trial" "MASKSCREEN_START_Kokon_E_DEG_N_228" 34 "[[217,294,384,384]]" 34 "Kokon" "blue" "degradated" "not underlined" "52" NA
174.141 1.83 4120528 "Exp.Trial" "MASKSCREEN_START_Seide_E_LET_N_339" 35 "[[328,405,384,384]]" 35 "Seide" "blue" "non-degradated" "not underlined" "152" NA
177.666 2.505 4124053 "Exp.Trial" "MASKSCREEN_START_Quart_E_LET_N_414" 36 "[[403,480,384,384]]" 36 "Quart" "blue" "non-degradated" "not underlined" "146" NA
181.836 2.157 4128223 "Exp.Trial" "MASKSCREEN_START_Liege_K_LET_U_215" 37 "[[204,281,384,384]]" 37 "Liege" "black" "non-degradated" "underlined" "280" NA
185.837 2.321 4132224 "Exp.Trial" "MASKSCREEN_START_Matte_E_LET_N_240" 38 "[[229,306,384,384]]" 38 "Matte" "blue" "non-degradated" "not underlined" "143" NA
190.743 2.437 4137130 "Exp.Trial" "MASKSCREEN_START_Buchs_E_DEG_U_426" 39 "[[415,492,384,384]]" 39 "Buchs" "blue" "degradated" "underlined" "5" NA
195.862 2.004 4142249 "Exp.Trial" "MASKSCREEN_START_Motor_E_LET_U_252" 40 "[[241,318,384,384]]" 40 "Motor" "blue" "non-degradated" "underlined" "89" NA
200.515 1.581 4146902 "Exp.Trial" "MASKSCREEN_START_Natur_K_LET_U_265" 41 "[[254,331,384,384]]" 41 "Natur" "black" "non-degradated" "underlined" "246" NA
203.812 3.523 4150199 "Exp.Trial" "MASKSCREEN_START_Zucht_E_LET_U_314" 42 "[[303,380,384,384]]" 42 "Zucht" "blue" "non-degradated" "underlined" "111" NA
208.993 1.947 4155380 "Exp.Trial" "MASKSCREEN_START_Summe_E_LET_N_265" 43 "[[254,331,384,384]]" 43 "Summe" "blue" "non-degradated" "not underlined" "123" NA
212.775 2.633 4159162 "Exp.Trial" "MASKSCREEN_START_Kolik_K_LET_U_302" 44 "[[291,368,384,384]]" 44 "Kolik" "black" "non-degradated" "underlined" "253" 0
222.898 2.329 4169285 "Exp.Trial" "MASKSCREEN_START_Plage_E_DEG_N_240" 45 "[[229,306,384,384]]" 45 "Plage" "blue" "degradated" "not underlined" "54" NA
226.722 1.392 4173109 "Exp.Trial" "MASKSCREEN_START_Ritze_K_LET_N_228" 46 "[[217,294,384,384]]" 46 "Ritze" "black" "non-degradated" "not underlined" "318" 0
234.236 1.875 4180623 "Exp.Trial" "MASKSCREEN_START_Bauer_K_DEG_U_389" 47 "[[378,455,384,384]]" 47 "Bauer" "black" "degradated" "underlined" "196" 0
247.991 2.902 4194378 "Exp.Trial" "MASKSCREEN_START_Griff_K_DEG_N_364" 48 "[[353,430,384,384]]" 48 "Griff" "black" "degradated" "not underlined" "225" NA
252.519 2.228 4198906 "Exp.Trial" "MASKSCREEN_START_Viper_E_DEG_U_364" 49 "[[353,430,384,384]]" 49 "Viper" "blue" "degradated" "underlined" "19" NA
257.671 1.76 4204058 "Exp.Trial" "MASKSCREEN_START_Krebs_E_DEG_U_228" 50 "[[217,294,384,384]]" 50 "Krebs" "blue" "degradated" "underlined" "29" NA
260.975 2.796 4207362 "Exp.Trial" "MASKSCREEN_START_Dämon_K_DEG_U_265" 51 "[[254,331,384,384]]" 51 "Dämon" "black" "degradated" "underlined" "192" 0
269.996 2.835 4216383 "Exp.Trial" "MASKSCREEN_START_Phase_E_DEG_N_228" 52 "[[217,294,384,384]]" 52 "Phase" "blue" "degradated" "not underlined" "69" 0
287.475 2.423 4233862 "Exp.Trial" "MASKSCREEN_START_Dogma_E_DEG_N_352" 53 "[[341,418,384,384]]" 53 "Dogma" "blue" "degradated" "not underlined" "67" NA
291.743 3.432 4238130 "Exp.Trial" "MASKSCREEN_START_Madam_E_DEG_U_252" 54 "[[241,318,384,384]]" 54 "Madam" "blue" "degradated" "underlined" "4" 0
302.943 2.852 4249330 "Exp.Trial" "MASKSCREEN_START_Bühne_E_LET_U_488" 55 "[[477,554,384,384]]" 55 "Bühne" "blue" "non-degradated" "underlined" "101" NA
307.688 1.884 4254075 "Exp.Trial" "MASKSCREEN_START_Rippe_E_DEG_N_327" 56 "[[316,393,384,384]]" 56 "Rippe" "blue" "degradated" "not underlined" "56" NA
311.22 1.677 4257607 "Exp.Trial" "MASKSCREEN_START_Gecko_K_LET_U_314" 57 "[[303,380,384,384]]" 57 "Gecko" "black" "non-degradated" "underlined" "268" NA
314.492 1.88 4260879 "Exp.Trial" "MASKSCREEN_START_Dicke_E_DEG_N_314" 58 "[[303,380,384,384]]" 58 "Dicke" "blue" "degradated" "not underlined" "43" NA
319.81 2.053 4266197 "Exp.Trial" "MASKSCREEN_START_Raser_E_DEG_U_290" 59 "[[279,356,384,384]]" 59 "Raser" "blue" "degradated" "underlined" "3" NA
323.64 2.022 4270027 "Exp.Trial" "MASKSCREEN_START_Kleid_K_LET_N_228" 60 "[[217,294,384,384]]" 60 "Kleid" "black" "non-degradated" "not underlined" "281" NA
327.485 2.297 4273872 "Exp.Trial" "MASKSCREEN_START_Laken_K_LET_N_228" 61 "[[217,294,384,384]]" 61 "Laken" "black" "non-degradated" "not underlined" "298" 0
335.715 1.238 4282102 "Exp.Trial" "MASKSCREEN_START_Taube_E_DEG_N_290" 62 "[[279,356,384,384]]" 62 "Taube" "blue" "degradated" "not underlined" "41" NA
338.559 2.369 4284946 "Exp.Trial" "MASKSCREEN_START_Logik_E_LET_N_389" 63 "[[378,455,384,384]]" 63 "Logik" "blue" "non-degradated" "not underlined" "144" NA
342.747 2.63 4289134 "Exp.Trial" "MASKSCREEN_START_Datei_E_LET_N_277" 64 "[[266,343,384,384]]" 64 "Datei" "blue" "non-degradated" "not underlined" "140" 0
350.459 2.896 4296846 "Exp.Trial" "MASKSCREEN_START_Panne_K_LET_U_252" 65 "[[241,318,384,384]]" 65 "Panne" "black" "non-degradated" "underlined" "276" NA
355.04 1.969 4301427 "Exp.Trial" "MASKSCREEN_START_Bitte_K_DEG_N_252" 66 "[[241,318,384,384]]" 66 "Bitte" "black" "degradated" "not underlined" "235" NA
358.406 1.904 4304793 "Exp.Trial" "MASKSCREEN_START_Enkel_K_DEG_N_277" 67 "[[266,343,384,384]]" 67 "Enkel" "black" "degradated" "not underlined" "205" NA
361.692 2.655 4308079 "Exp.Trial" "MASKSCREEN_START_Gicht_E_DEG_U_401" 68 "[[390,467,384,384]]" 68 "Gicht" "blue" "degradated" "underlined" "33" NA
366.004 1.748 4312391 "Exp.Trial" "MASKSCREEN_START_Nugat_E_DEG_N_265" 69 "[[254,331,384,384]]" 69 "Nugat" "blue" "degradated" "not underlined" "55" NA
370.215 2.397 4316602 "Exp.Trial" "MASKSCREEN_START_Pfahl_K_DEG_U_240" 70 "[[229,306,384,384]]" 70 "Pfahl" "black" "degradated" "underlined" "189" NA
374.21 2.082 4320597 "Exp.Trial" "MASKSCREEN_START_Treff_K_LET_U_302" 71 "[[291,368,384,384]]" 71 "Treff" "black" "non-degradated" "underlined" "270" NA
377.908 1.551 4324295 "Exp.Trial" "MASKSCREEN_START_Spott_K_DEG_U_265" 72 "[[254,331,384,384]]" 72 "Spott" "black" "degradated" "underlined" "180" NA
381.063 4.31 4327450 "Exp.Trial" "MASKSCREEN_START_Sorte_K_LET_N_327" 73 "[[316,393,384,384]]" 73 "Sorte" "black" "non-degradated" "not underlined" "299" NA
387.936 2.447 4334323 "Exp.Trial" "MASKSCREEN_START_Beute_K_DEG_U_389" 74 "[[378,455,384,384]]" 74 "Beute" "black" "degradated" "underlined" "169" NA
392.076 1.735 4338463 "Exp.Trial" "MASKSCREEN_START_Spore_E_DEG_N_339" 75 "[[328,405,384,384]]" 75 "Spore" "blue" "degradated" "not underlined" "42" NA
395.34 1.709 4341727 "Exp.Trial" "MASKSCREEN_START_Karte_K_LET_U_327" 76 "[[316,393,384,384]]" 76 "Karte" "black" "non-degradated" "underlined" "254" NA
399.749 2.428 4346136 "Exp.Trial" "MASKSCREEN_START_Pfand_K_DEG_N_414" 77 "[[403,480,384,384]]" 77 "Pfand" "black" "degradated" "not underlined" "201" NA
403.554 2.825 4349941 "Exp.Trial" "MASKSCREEN_START_Bürde_K_DEG_N_290" 78 "[[279,356,384,384]]" 78 "Bürde" "black" "degradated" "not underlined" "238" 0
412.818 2.267 4359205 "Exp.Trial" "MASKSCREEN_START_Major_K_DEG_U_252" 79 "[[241,318,384,384]]" 79 "Major" "black" "degradated" "underlined" "195" NA
416.476 4.14 4362863 "Exp.Trial" "MASKSCREEN_START_Kuhle_E_DEG_N_277" 80 "[[266,343,384,384]]" 80 "Kuhle" "blue" "degradated" "not underlined" "45" NA
422.24 1.24 4368627 "Exp.Trial" "MASKSCREEN_START_Rache_K_DEG_N_302" 81 "[[291,368,384,384]]" 81 "Rache" "black" "degradated" "not underlined" "223" NA
426.4 3.244 4372787 "Exp.Trial" "MASKSCREEN_START_Zuzug_E_LET_U_327" 82 "[[316,393,384,384]]" 82 "Zuzug" "blue" "non-degradated" "underlined" "106" NA
431.187 1.183 4377574 "Exp.Trial" "MASKSCREEN_START_Zeche_E_LET_U_277" 83 "[[266,343,384,384]]" 83 "Zeche" "blue" "non-degradated" "underlined" "82" NA
435.581 2.628 4381968 "Exp.Trial" "MASKSCREEN_START_Hagel_K_DEG_N_438" 84 "[[427,504,384,384]]" 84 "Hagel" "black" "degradated" "not underlined" "227" NA
439.777 2.356 4386164 "Exp.Trial" "MASKSCREEN_START_Otter_E_LET_U_290" 85 "[[279,356,384,384]]" 85 "Otter" "blue" "non-degradated" "underlined" "112" NA
443.799 2.218 4390186 "Exp.Trial" "MASKSCREEN_START_Miene_E_LET_N_265" 86 "[[254,331,384,384]]" 86 "Miene" "blue" "non-degradated" "not underlined" "155" NA
447.676 2.805 4394063 "Exp.Trial" "MASKSCREEN_START_Regie_E_LET_U_327" 87 "[[316,393,384,384]]" 87 "Regie" "blue" "non-degradated" "underlined" "116" NA
452.217 1.751 4398604 "Exp.Trial" "MASKSCREEN_START_Messe_K_LET_N_240" 88 "[[229,306,384,384]]" 88 "Messe" "black" "non-degradated" "not underlined" "310" NA
455.529 3.81 4401916 "Exp.Trial" "MASKSCREEN_START_Weber_E_DEG_U_339" 89 "[[328,405,384,384]]" 89 "Weber" "blue" "degradated" "underlined" "38" NA
462.627 2.541 4409014 "Exp.Trial" "MASKSCREEN_START_Mensa_E_LET_U_277" 90 "[[266,343,384,384]]" 90 "Mensa" "blue" "non-degradated" "underlined" "83" NA
466.544 3.139 4412931 "Exp.Trial" "MASKSCREEN_START_Kunde_E_DEG_U_228" 91 "[[217,294,384,384]]" 91 "Kunde" "blue" "degradated" "underlined" "20" 0
478.022 3.596 4424409 "Exp.Trial" "MASKSCREEN_START_Sturz_K_DEG_N_228" 92 "[[217,294,384,384]]" 92 "Sturz" "black" "degradated" "not underlined" "219" NA
483.357 2.958 4429744 "Exp.Trial" "MASKSCREEN_START_Stube_K_LET_U_240" 93 "[[229,306,384,384]]" 93 "Stube" "black" "non-degradated" "underlined" "273" NA
487.944 4.917 4434331 "Exp.Trial" "MASKSCREEN_START_Leere_K_LET_N_600" 94 "[[589,666,384,384]]" 94 "Leere" "black" "non-degradated" "not underlined" "290" NA
494.517 2.007 4440904 "Exp.Trial" "MASKSCREEN_START_Hocke_K_LET_N_265" 95 "[[254,331,384,384]]" 95 "Hocke" "black" "non-degradated" "not underlined" "308" NA
498.107 2.077 4444494 "Exp.Trial" "MASKSCREEN_START_Baske_E_DEG_N_228" 96 "[[217,294,384,384]]" 96 "Baske" "blue" "degradated" "not underlined" "78" NA
501.744 3.63 4448131 "Exp.Trial" "MASKSCREEN_START_Götze_K_DEG_U_488" 97 "[[477,554,384,384]]" 97 "Götze" "black" "degradated" "underlined" "179" 0
511.501 5.601 4457888 "Exp.Trial" "MASKSCREEN_START_Achse_K_DEG_U_252" 98 "[[241,318,384,384]]" 98 "Achse" "black" "degradated" "underlined" "172" 0
522.635 2.169 4469022 "Exp.Trial" "MASKSCREEN_START_Lauch_K_DEG_U_500" 99 "[[489,566,384,384]]" 99 "Lauch" "black" "degradated" "underlined" "197" NA
526.425 2.313 4472812 "Exp.Trial" "MASKSCREEN_START_Knabe_E_DEG_U_252" 100 "[[241,318,384,384]]" 100 "Knabe" "blue" "degradated" "underlined" "1" 0
535.7 1.789 4482087 "Exp.Trial" "MASKSCREEN_START_Klotz_E_LET_N_252" 101 "[[241,318,384,384]]" 101 "Klotz" "blue" "non-degradated" "not underlined" "136" 0
544.396 1.741 4490783 "Exp.Trial" "MASKSCREEN_START_Wunde_K_DEG_N_290" 102 "[[279,356,384,384]]" 102 "Wunde" "black" "degradated" "not underlined" "202" NA
548.657 1.796 4495044 "Exp.Trial" "MASKSCREEN_START_Getön_K_DEG_U_265" 103 "[[254,331,384,384]]" 103 "Getön" "black" "degradated" "underlined" "175" NA
552.09 2.386 4498477 "Exp.Trial" "MASKSCREEN_START_Mokka_K_LET_N_302" 104 "[[291,368,384,384]]" 104 "Mokka" "black" "non-degradated" "not underlined" "312" NA
556.072 2.895 4502459 "Exp.Trial" "MASKSCREEN_START_Pfund_K_DEG_U_426" 105 "[[415,492,384,384]]" 105 "Pfund" "black" "degradated" "underlined" "164" NA
560.58 2.163 4506967 "Exp.Trial" "MASKSCREEN_START_Jubel_E_DEG_U_240" 106 "[[229,306,384,384]]" 106 "Jubel" "blue" "degradated" "underlined" "12" NA
564.383 2.966 4510770 "Exp.Trial" "MASKSCREEN_START_Falle_K_LET_U_339" 107 "[[328,405,384,384]]" 107 "Falle" "black" "non-degradated" "underlined" "244" NA
568.93 2.023 4515317 "Exp.Trial" "MASKSCREEN_START_Block_E_DEG_N_414" 108 "[[403,480,384,384]]" 108 "Block" "blue" "degradated" "not underlined" "60" NA
572.364 3.516 4518751 "Exp.Trial" "MASKSCREEN_START_Kehle_K_LET_N_277" 109 "[[266,343,384,384]]" 109 "Kehle" "black" "non-degradated" "not underlined" "319" NA
577.745 2.431 4524132 "Exp.Trial" "MASKSCREEN_START_Polka_E_LET_U_525" 110 "[[514,591,384,384]]" 110 "Polka" "blue" "non-degradated" "underlined" "102" NA
581.723 5.405 4528110 "Exp.Trial" "MASKSCREEN_START_Zinke_K_DEG_U_240" 111 "[[229,306,384,384]]" 111 "Zinke" "black" "degradated" "underlined" "168" NA
588.837 2.88 4535224 "Exp.Trial" "MASKSCREEN_START_Boxer_K_LET_N_314" 112 "[[303,380,384,384]]" 112 "Boxer" "black" "non-degradated" "not underlined" "313" 0
600.734 2.123 4547121 "Exp.Trial" "MASKSCREEN_START_Bande_K_DEG_N_364" 113 "[[353,430,384,384]]" 113 "Bande" "black" "degradated" "not underlined" "209" NA
604.392 2.334 4550779 "Exp.Trial" "MASKSCREEN_START_Wärme_E_DEG_U_252" 114 "[[241,318,384,384]]" 114 "Wärme" "blue" "degradated" "underlined" "21" NA
608.155 3.478 4554542 "Exp.Trial" "MASKSCREEN_START_Geist_E_LET_N_277" 115 "[[266,343,384,384]]" 115 "Geist" "blue" "non-degradated" "not underlined" "134" NA
613.227 3.945 4559614 "Exp.Trial" "MASKSCREEN_START_Strom_K_DEG_U_240" 116 "[[229,306,384,384]]" 116 "Strom" "black" "degradated" "underlined" "163" NA
618.876 3.045 4565263 "Exp.Trial" "MASKSCREEN_START_Heber_K_LET_N_525" 117 "[[514,591,384,384]]" 117 "Heber" "black" "non-degradated" "not underlined" "292" NA
623.304 4.517 4569691 "Exp.Trial" "MASKSCREEN_START_Garde_E_DEG_U_364" 118 "[[353,430,384,384]]" 118 "Garde" "blue" "degradated" "underlined" "39" NA
629.411 2.402 4575798 "Exp.Trial" "MASKSCREEN_START_Insel_E_DEG_U_339" 119 "[[328,405,384,384]]" 119 "Insel" "blue" "degradated" "underlined" "2" NA
633.441 2.486 4579828 "Exp.Trial" "MASKSCREEN_START_Ruder_K_DEG_N_252" 120 "[[241,318,384,384]]" 120 "Ruder" "black" "degradated" "not underlined" "228" NA
637.539 3.01 4583926 "Exp.Trial" "MASKSCREEN_START_Echse_K_LET_N_228" 121 "[[217,294,384,384]]" 121 "Echse" "black" "non-degradated" "not underlined" "288" NA
642.349 2.483 4588736 "Exp.Trial" "MASKSCREEN_START_Stern_K_DEG_N_228" 122 "[[217,294,384,384]]" 122 "Stern" "black" "degradated" "not underlined" "237" 0
651.943 2.449 4598330 "Exp.Trial" "MASKSCREEN_START_Datum_E_LET_U_228" 123 "[[217,294,384,384]]" 123 "Datum" "blue" "non-degradated" "underlined" "107" NA
655.866 1.954 4602253 "Exp.Trial" "MASKSCREEN_START_Zwang_K_LET_U_352" 124 "[[341,418,384,384]]" 124 "Zwang" "black" "non-degradated" "underlined" "272" NA
659.276 1.682 4605663 "Exp.Trial" "MASKSCREEN_START_Tabak_K_LET_N_290" 125 "[[279,356,384,384]]" 125 "Tabak" "black" "non-degradated" "not underlined" "316" NA
662.536 2.805 4608923 "Exp.Trial" "MASKSCREEN_START_Beuge_E_DEG_N_426" 126 "[[415,492,384,384]]" 126 "Beuge" "blue" "degradated" "not underlined" "73" NA
666.738 2.12 4613125 "Exp.Trial" "MASKSCREEN_START_Figur_K_DEG_N_364" 127 "[[353,430,384,384]]" 127 "Figur" "black" "degradated" "not underlined" "232" 0
674.618 2.924 4621005 "Exp.Trial" "MASKSCREEN_START_Müsli_K_DEG_N_426" 128 "[[415,492,384,384]]" 128 "Müsli" "black" "degradated" "not underlined" "210" NA
679.372 1.894 4625759 "Exp.Trial" "MASKSCREEN_START_Kelch_E_DEG_U_327" 129 "[[316,393,384,384]]" 129 "Kelch" "blue" "degradated" "underlined" "8" NA
682.869 2.594 4629256 "Exp.Trial" "MASKSCREEN_START_Trott_K_DEG_U_339" 130 "[[328,405,384,384]]" 130 "Trott" "black" "degradated" "underlined" "194" NA
687.037 3.482 4633424 "Exp.Trial" "MASKSCREEN_START_Chrom_K_DEG_N_277" 131 "[[266,343,384,384]]" 131 "Chrom" "black" "degradated" "not underlined" "213" NA
691.929 3.333 4638316 "Exp.Trial" "MASKSCREEN_START_Blech_E_DEG_U_277" 132 "[[266,343,384,384]]" 132 "Blech" "blue" "degradated" "underlined" "36" NA
696.702 2.416 4643089 "Exp.Trial" "MASKSCREEN_START_Zeile_E_LET_U_277" 133 "[[266,343,384,384]]" 133 "Zeile" "blue" "non-degradated" "underlined" "88" NA
700.534 2.847 4646921 "Exp.Trial" "MASKSCREEN_START_Abzug_E_LET_N_240" 134 "[[229,306,384,384]]" 134 "Abzug" "blue" "non-degradated" "not underlined" "130" NA
704.743 2.228 4651130 "Exp.Trial" "MASKSCREEN_START_Mappe_E_DEG_U_252" 135 "[[241,318,384,384]]" 135 "Mappe" "blue" "degradated" "underlined" "32" 0
714.766 1.959 4661153 "Exp.Trial" "MASKSCREEN_START_Anker_E_DEG_U_290" 136 "[[279,356,384,384]]" 136 "Anker" "blue" "degradated" "underlined" "22" 0
722.852 2.043 4669239 "Exp.Trial" "MASKSCREEN_START_Biest_E_LET_U_314" 137 "[[303,380,384,384]]" 137 "Biest" "blue" "non-degradated" "underlined" "114" NA
726.516 1.948 4672903 "Exp.Trial" "MASKSCREEN_START_Klima_E_LET_N_252" 138 "[[241,318,384,384]]" 138 "Klima" "blue" "non-degradated" "not underlined" "141" NA
730.062 2.068 4676449 "Exp.Trial" "MASKSCREEN_START_Feile_K_DEG_U_302" 139 "[[291,368,384,384]]" 139 "Feile" "black" "degradated" "underlined" "185" NA
733.764 2.773 4680151 "Exp.Trial" "MASKSCREEN_START_Runde_E_LET_U_228" 140 "[[217,294,384,384]]" 140 "Runde" "blue" "non-degradated" "underlined" "108" NA
738.199 1.401 4684586 "Exp.Trial" "MASKSCREEN_START_Regal_E_DEG_U_228" 141 "[[217,294,384,384]]" 141 "Regal" "blue" "degradated" "underlined" "10" 0
744.512 1.746 4690899 "Exp.Trial" "MASKSCREEN_START_Belag_K_DEG_N_252" 142 "[[241,318,384,384]]" 142 "Belag" "black" "degradated" "not underlined" "218" NA
747.619 3.756 4694006 "Exp.Trial" "MASKSCREEN_START_Kugel_K_DEG_U_314" 143 "[[303,380,384,384]]" 143 "Kugel" "black" "degradated" "underlined" "186" NA
753.037 2.985 4699424 "Exp.Trial" "MASKSCREEN_START_Fehde_K_DEG_U_252" 144 "[[241,318,384,384]]" 144 "Fehde" "black" "degradated" "underlined" "176" 0
764.833 3.166 4711220 "Exp.Trial" "MASKSCREEN_START_Sumpf_K_DEG_U_252" 145 "[[241,318,384,384]]" 145 "Sumpf" "black" "degradated" "underlined" "182" NA
769.718 1.502 4716105 "Exp.Trial" "MASKSCREEN_START_König_K_DEG_U_550" 146 "[[539,616,384,384]]" 146 "König" "black" "degradated" "underlined" "178" NA
774.106 2.107 4720493 "Exp.Trial" "MASKSCREEN_START_Beton_E_LET_N_277" 147 "[[266,343,384,384]]" 147 "Beton" "blue" "non-degradated" "not underlined" "125" NA
777.902 1.831 4724289 "Exp.Trial" "MASKSCREEN_START_Äther_E_DEG_U_451" 148 "[[440,517,384,384]]" 148 "Äther" "blue" "degradated" "underlined" "34" NA
781.381 2.953 4727768 "Exp.Trial" "MASKSCREEN_START_Juwel_E_LET_N_426" 149 "[[415,492,384,384]]" 149 "Juwel" "blue" "non-degradated" "not underlined" "142" NA
785.941 2.15 4732328 "Exp.Trial" "MASKSCREEN_START_Malve_K_LET_U_339" 150 "[[328,405,384,384]]" 150 "Malve" "black" "non-degradated" "underlined" "241" NA
789.519 2.46 4735906 "Exp.Trial" "MASKSCREEN_START_Stamm_K_LET_U_414" 151 "[[403,480,384,384]]" 151 "Stamm" "black" "non-degradated" "underlined" "274" NA
794.651 2.751 4741038 "Exp.Trial" "MASKSCREEN_START_Bowle_K_LET_U_215" 152 "[[204,281,384,384]]" 152 "Bowle" "black" "non-degradated" "underlined" "269" NA
798.813 2.813 4745200 "Exp.Trial" "MASKSCREEN_START_Psalm_E_LET_U_215" 153 "[[204,281,384,384]]" 153 "Psalm" "blue" "non-degradated" "underlined" "118" NA
803.242 1.684 4749629 "Exp.Trial" "MASKSCREEN_START_Kajak_K_DEG_U_314" 154 "[[303,380,384,384]]" 154 "Kajak" "black" "degradated" "underlined" "190" NA
806.566 2.315 4752953 "Exp.Trial" "MASKSCREEN_START_Säule_E_LET_N_302" 155 "[[291,368,384,384]]" 155 "Säule" "blue" "non-degradated" "not underlined" "126" NA
810.218 2.507 4756605 "Exp.Trial" "MASKSCREEN_START_Pulle_E_DEG_N_339" 156 "[[328,405,384,384]]" 156 "Pulle" "blue" "degradated" "not underlined" "48" NA
814.333 1.749 4760720 "Exp.Trial" "MASKSCREEN_START_Pferd_K_LET_N_228" 157 "[[217,294,384,384]]" 157 "Pferd" "black" "non-degradated" "not underlined" "282" NA
817.699 2.482 4764086 "Exp.Trial" "MASKSCREEN_START_Basar_K_DEG_N_228" 158 "[[217,294,384,384]]" 158 "Basar" "black" "degradated" "not underlined" "203" NA
821.762 2.282 4768149 "Exp.Trial" "MASKSCREEN_START_Kutte_E_DEG_U_240" 159 "[[229,306,384,384]]" 159 "Kutte" "blue" "degradated" "underlined" "9" NA
825.451 1.595 4771838 "Exp.Trial" "MASKSCREEN_START_Sitte_E_LET_N_290" 160 "[[279,356,384,384]]" 160 "Sitte" "blue" "non-degradated" "not underlined" "151" NA
828.633 1.886 4775020 "Exp.Trial" "MASKSCREEN_START_Villa_K_DEG_N_314" 161 "[[303,380,384,384]]" 161 "Villa" "black" "degradated" "not underlined" "240" NA
831.918 1.783 4778305 "Exp.Trial" "MASKSCREEN_START_Decke_E_LET_U_414" 162 "[[403,480,384,384]]" 162 "Decke" "blue" "non-degradated" "underlined" "86" NA
835.323 3.188 4781710 "Exp.Trial" "MASKSCREEN_START_Drill_E_LET_N_339" 163 "[[328,405,384,384]]" 163 "Drill" "blue" "non-degradated" "not underlined" "128" NA
840.149 1.529 4786536 "Exp.Trial" "MASKSCREEN_START_Alter_K_LET_N_228" 164 "[[217,294,384,384]]" 164 "Alter" "black" "non-degradated" "not underlined" "296" NA
844.691 2.254 4791078 "Exp.Trial" "MASKSCREEN_START_Erlös_E_DEG_N_476" 165 "[[465,542,384,384]]" 165 "Erlös" "blue" "degradated" "not underlined" "47" NA
848.387 1.722 4794774 "Exp.Trial" "MASKSCREEN_START_Votum_K_LET_N_265" 166 "[[254,331,384,384]]" 166 "Votum" "black" "non-degradated" "not underlined" "317" NA
851.694 2.49 4798081 "Exp.Trial" "MASKSCREEN_START_Union_E_DEG_N_215" 167 "[[204,281,384,384]]" 167 "Union" "blue" "degradated" "not underlined" "46" NA
855.625 2.018 4802012 "Exp.Trial" "MASKSCREEN_START_Motiv_E_DEG_U_290" 168 "[[279,356,384,384]]" 168 "Motiv" "blue" "degradated" "underlined" "13" NA
859.069 2.03 4805456 "Exp.Trial" "MASKSCREEN_START_Drama_K_LET_N_290" 169 "[[279,356,384,384]]" 169 "Drama" "black" "non-degradated" "not underlined" "314" 0
866.903 2.262 4813290 "Exp.Trial" "MASKSCREEN_START_Lauge_K_DEG_N_240" 170 "[[229,306,384,384]]" 170 "Lauge" "black" "degradated" "not underlined" "236" NA
870.791 1.531 4817178 "Exp.Trial" "MASKSCREEN_START_Polio_E_LET_U_364" 171 "[[353,430,384,384]]" 171 "Polio" "blue" "non-degradated" "underlined" "103" 0
877.895 1.648 4824282 "Exp.Trial" "MASKSCREEN_START_Gerät_E_LET_U_277" 172 "[[266,343,384,384]]" 172 "Gerät" "blue" "non-degradated" "underlined" "119" NA
881.191 2.645 4827578 "Exp.Trial" "MASKSCREEN_START_Torte_E_LET_N_240" 173 "[[229,306,384,384]]" 173 "Torte" "blue" "non-degradated" "not underlined" "149" 0
890.355 2.584 4836742 "Exp.Trial" "MASKSCREEN_START_Masse_E_DEG_N_228" 174 "[[217,294,384,384]]" 174 "Masse" "blue" "degradated" "not underlined" "50" NA
894.625 2.213 4841012 "Exp.Trial" "MASKSCREEN_START_Kreml_K_DEG_N_488" 175 "[[477,554,384,384]]" 175 "Kreml" "black" "degradated" "not underlined" "222" NA
898.492 1.928 4844879 "Exp.Trial" "MASKSCREEN_START_Spreu_K_DEG_U_364" 176 "[[353,430,384,384]]" 176 "Spreu" "black" "degradated" "underlined" "161" NA
901.998 1.694 4848385 "Exp.Trial" "MASKSCREEN_START_Ikone_K_LET_U_314" 177 "[[303,380,384,384]]" 177 "Ikone" "black" "non-degradated" "underlined" "267" 0
908.828 2.245 4855215 "Exp.Trial" "MASKSCREEN_START_Wange_K_LET_U_401" 178 "[[390,467,384,384]]" 178 "Wange" "black" "non-degradated" "underlined" "256" NA
912.892 2.113 4859279 "Exp.Trial" "MASKSCREEN_START_Henne_K_LET_N_228" 179 "[[217,294,384,384]]" 179 "Henne" "black" "non-degradated" "not underlined" "320" NA
916.629 2.158 4863016 "Exp.Trial" "MASKSCREEN_START_Würze_K_LET_U_277" 180 "[[266,343,384,384]]" 180 "Würze" "black" "non-degradated" "underlined" "263" NA
920.387 2.577 4866774 "Exp.Trial" "MASKSCREEN_START_Gusto_K_DEG_N_476" 181 "[[465,542,384,384]]" 181 "Gusto" "black" "degradated" "not underlined" "220" NA
924.517 2.3 4870904 "Exp.Trial" "MASKSCREEN_START_Waffe_K_DEG_U_389" 182 "[[378,455,384,384]]" 182 "Waffe" "black" "degradated" "underlined" "174" 0
932.806 2.339 4879193 "Exp.Trial" "MASKSCREEN_START_Onkel_E_DEG_U_228" 183 "[[217,294,384,384]]" 183 "Onkel" "blue" "degradated" "underlined" "35" NA
936.769 2.38 4883156 "Exp.Trial" "MASKSCREEN_START_Tarif_E_LET_U_215" 184 "[[204,281,384,384]]" 184 "Tarif" "blue" "non-degradated" "underlined" "90" NA
940.694 3.765 4887081 "Exp.Trial" "MASKSCREEN_START_Liste_E_LET_U_426" 185 "[[415,492,384,384]]" 185 "Liste" "blue" "non-degradated" "underlined" "99" NA
946.097 1.944 4892484 "Exp.Trial" "MASKSCREEN_START_Nudel_E_LET_N_426" 186 "[[415,492,384,384]]" 186 "Nudel" "blue" "non-degradated" "not underlined" "154" NA
949.656 3.202 4896043 "Exp.Trial" "MASKSCREEN_START_Miliz_E_LET_U_290" 187 "[[279,356,384,384]]" 187 "Miliz" "blue" "non-degradated" "underlined" "120" NA
954.453 2.369 4900840 "Exp.Trial" "MASKSCREEN_START_Bogen_K_DEG_N_401" 188 "[[390,467,384,384]]" 188 "Bogen" "black" "degradated" "not underlined" "221" NA
958.469 3.051 4904856 "Exp.Trial" "MASKSCREEN_START_Daune_E_LET_U_327" 189 "[[316,393,384,384]]" 189 "Daune" "blue" "non-degradated" "underlined" "110" NA
962.951 2.228 4909338 "Exp.Trial" "MASKSCREEN_START_Würde_E_LET_U_376" 190 "[[365,442,384,384]]" 190 "Würde" "blue" "non-degradated" "underlined" "104" NA
966.774 1.551 4913161 "Exp.Trial" "MASKSCREEN_START_Paket_E_DEG_N_352" 191 "[[341,418,384,384]]" 191 "Paket" "blue" "degradated" "not underlined" "77" NA
969.887 2.311 4916274 "Exp.Trial" "MASKSCREEN_START_Motte_E_DEG_N_252" 192 "[[241,318,384,384]]" 192 "Motte" "blue" "degradated" "not underlined" "63" NA
973.624 2.589 4920011 "Exp.Trial" "MASKSCREEN_START_Pirat_E_LET_N_215" 193 "[[204,281,384,384]]" 193 "Pirat" "blue" "non-degradated" "not underlined" "133" NA
977.868 2.741 4924255 "Exp.Trial" "MASKSCREEN_START_Tapir_E_LET_U_277" 194 "[[266,343,384,384]]" 194 "Tapir" "blue" "non-degradated" "underlined" "92" 0
988.947 3.553 4935334 "Exp.Trial" "MASKSCREEN_START_Feder_K_DEG_N_314" 195 "[[303,380,384,384]]" 195 "Feder" "black" "degradated" "not underlined" "231" NA
994.641 1.677 4941028 "Exp.Trial" "MASKSCREEN_START_Abruf_E_DEG_N_389" 196 "[[378,455,384,384]]" 196 "Abruf" "blue" "degradated" "not underlined" "71" NA
997.827 2.705 4944214 "Exp.Trial" "MASKSCREEN_START_Slawe_K_DEG_U_277" 197 "[[266,343,384,384]]" 197 "Slawe" "black" "degradated" "underlined" "171" NA
1002.164 2.929 4948551 "Exp.Trial" "MASKSCREEN_START_Werft_E_LET_U_376" 198 "[[365,442,384,384]]" 198 "Werft" "blue" "non-degradated" "underlined" "87" NA
1006.771 1.917 4953158 "Exp.Trial" "MASKSCREEN_START_Flair_E_LET_N_240" 199 "[[229,306,384,384]]" 199 "Flair" "blue" "non-degradated" "not underlined" "147" NA
1010.141 1.954 4956528 "Exp.Trial" "MASKSCREEN_START_Wuchs_E_LET_U_228" 200 "[[217,294,384,384]]" 200 "Wuchs" "blue" "non-degradated" "underlined" "85" NA
1013.547 2.358 4959934 "Exp.Trial" "MASKSCREEN_START_Tolle_K_LET_N_513" 201 "[[502,579,384,384]]" 201 "Tolle" "black" "non-degradated" "not underlined" "300" NA
1017.537 1.671 4963924 "Exp.Trial" "MASKSCREEN_START_Wüste_K_LET_U_277" 202 "[[266,343,384,384]]" 202 "Wüste" "black" "non-degradated" "underlined" "261" NA
1020.878 3.931 4967265 "Exp.Trial" "MASKSCREEN_START_Ahorn_K_DEG_U_228" 203 "[[217,294,384,384]]" 203 "Ahorn" "black" "degradated" "underlined" "193" NA
1026.459 3.061 4972846 "Exp.Trial" "MASKSCREEN_START_Mimik_K_LET_N_352" 204 "[[341,418,384,384]]" 204 "Mimik" "black" "non-degradated" "not underlined" "293" NA
1031.105 1.936 4977492 "Exp.Trial" "MASKSCREEN_START_Nonne_K_DEG_U_265" 205 "[[254,331,384,384]]" 205 "Nonne" "black" "degradated" "underlined" "198" NA
1034.977 2.478 4981364 "Exp.Trial" "MASKSCREEN_START_Tisch_E_DEG_N_488" 206 "[[477,554,384,384]]" 206 "Tisch" "blue" "degradated" "not underlined" "62" 0
1044.933 3.23 4991320 "Exp.Trial" "MASKSCREEN_START_Sigma_K_DEG_N_302" 207 "[[291,368,384,384]]" 207 "Sigma" "black" "degradated" "not underlined" "234" NA
1049.845 1.881 4996232 "Exp.Trial" "MASKSCREEN_START_Zicke_K_DEG_U_252" 208 "[[241,318,384,384]]" 208 "Zicke" "black" "degradated" "underlined" "183" 0
1057.341 1.33 5003728 "Exp.Trial" "MASKSCREEN_START_Beule_K_LET_U_327" 209 "[[316,393,384,384]]" 209 "Beule" "black" "non-degradated" "underlined" "266" NA
1060.273 1.526 5006660 "Exp.Trial" "MASKSCREEN_START_Radar_K_LET_N_228" 210 "[[217,294,384,384]]" 210 "Radar" "black" "non-degradated" "not underlined" "306" NA
1063.374 2.921 5009761 "Exp.Trial" "MASKSCREEN_START_Obhut_E_DEG_U_389" 211 "[[378,455,384,384]]" 211 "Obhut" "blue" "degradated" "underlined" "40" NA
1067.836 1.687 5014223 "Exp.Trial" "MASKSCREEN_START_Ölung_E_DEG_U_228" 212 "[[217,294,384,384]]" 212 "Ölung" "blue" "degradated" "underlined" "14" 0
1075.848 1.708 5022235 "Exp.Trial" "MASKSCREEN_START_Zitat_K_LET_N_376" 213 "[[365,442,384,384]]" 213 "Zitat" "black" "non-degradated" "not underlined" "311" NA
1080.394 3.159 5026781 "Exp.Trial" "MASKSCREEN_START_Ziege_E_DEG_N_451" 214 "[[440,517,384,384]]" 214 "Ziege" "blue" "degradated" "not underlined" "51" NA
1085.207 1.693 5031594 "Exp.Trial" "MASKSCREEN_START_Zeder_K_LET_N_265" 215 "[[254,331,384,384]]" 215 "Zeder" "black" "non-degradated" "not underlined" "304" NA
1088.554 2.436 5034941 "Exp.Trial" "MASKSCREEN_START_Troll_E_DEG_N_426" 216 "[[415,492,384,384]]" 216 "Troll" "blue" "degradated" "not underlined" "57" 0
1099.175 3.7 5045562 "Exp.Trial" "MASKSCREEN_START_Hafer_K_DEG_U_203" 217 "[[192,269,384,384]]" 217 "Hafer" "black" "degradated" "underlined" "177" NA
1104.472 1.635 5050859 "Exp.Trial" "MASKSCREEN_START_Abend_E_DEG_U_252" 218 "[[241,318,384,384]]" 218 "Abend" "blue" "degradated" "underlined" "7" 0
1113.253 1.855 5059640 "Exp.Trial" "MASKSCREEN_START_Übung_E_LET_U_228" 219 "[[217,294,384,384]]" 219 "Übung" "blue" "non-degradated" "underlined" "100" NA
1116.453 4.525 5062840 "Exp.Trial" "MASKSCREEN_START_Druck_E_DEG_N_252" 220 "[[241,318,384,384]]" 220 "Druck" "blue" "degradated" "not underlined" "75" NA
1122.6 2.032 5068987 "Exp.Trial" "MASKSCREEN_START_Meise_E_LET_U_426" 221 "[[415,492,384,384]]" 221 "Meise" "blue" "non-degradated" "underlined" "105" NA
1127.374 2.487 5073761 "Exp.Trial" "MASKSCREEN_START_Elite_K_DEG_N_290" 222 "[[279,356,384,384]]" 222 "Elite" "black" "degradated" "not underlined" "233" NA
1131.356 2.16 5077743 "Exp.Trial" "MASKSCREEN_START_Anruf_E_LET_U_376" 223 "[[365,442,384,384]]" 223 "Anruf" "blue" "non-degradated" "underlined" "91" 0
1140.139 2.287 5086526 "Exp.Trial" "MASKSCREEN_START_Tunke_E_DEG_U_252" 224 "[[241,318,384,384]]" 224 "Tunke" "blue" "degradated" "underlined" "30" NA
1143.975 2.466 5090362 "Exp.Trial" "MASKSCREEN_START_Radio_E_LET_U_352" 225 "[[341,418,384,384]]" 225 "Radio" "blue" "non-degradated" "underlined" "109" NA
1148.808 2.448 5095195 "Exp.Trial" "MASKSCREEN_START_Weihe_K_LET_U_401" 226 "[[390,467,384,384]]" 226 "Weihe" "black" "non-degradated" "underlined" "264" NA
1152.897 2.846 5099284 "Exp.Trial" "MASKSCREEN_START_Waage_K_LET_U_302" 227 "[[291,368,384,384]]" 227 "Waage" "black" "non-degradated" "underlined" "255" NA
1157.464 2.733 5103851 "Exp.Trial" "MASKSCREEN_START_Witwe_E_DEG_N_352" 228 "[[341,418,384,384]]" 228 "Witwe" "blue" "degradated" "not underlined" "64" NA
1161.561 2.737 5107948 "Exp.Trial" "MASKSCREEN_START_Heide_K_DEG_U_376" 229 "[[365,442,384,384]]" 229 "Heide" "black" "degradated" "underlined" "191" NA
1165.849 1.875 5112236 "Exp.Trial" "MASKSCREEN_START_These_E_DEG_N_376" 230 "[[365,442,384,384]]" 230 "These" "blue" "degradated" "not underlined" "53" NA
1169.36 2.184 5115747 "Exp.Trial" "MASKSCREEN_START_Brust_K_LET_U_314" 231 "[[303,380,384,384]]" 231 "Brust" "black" "non-degradated" "underlined" "251" NA
1172.984 2.202 5119371 "Exp.Trial" "MASKSCREEN_START_Optik_K_LET_N_352" 232 "[[341,418,384,384]]" 232 "Optik" "black" "non-degradated" "not underlined" "301" NA
1176.643 2.986 5123030 "Exp.Trial" "MASKSCREEN_START_Orbit_K_LET_N_228" 233 "[[217,294,384,384]]" 233 "Orbit" "black" "non-degradated" "not underlined" "287" NA
1181.016 3.793 5127403 "Exp.Trial" "MASKSCREEN_START_Plane_K_LET_U_414" 234 "[[403,480,384,384]]" 234 "Plane" "black" "non-degradated" "underlined" "277" NA
1186.433 2.353 5132820 "Exp.Trial" "MASKSCREEN_START_Lehne_K_DEG_N_401" 235 "[[390,467,384,384]]" 235 "Lehne" "black" "degradated" "not underlined" "224" NA
1190.379 2.041 5136766 "Exp.Trial" "MASKSCREEN_START_Panda_E_DEG_U_265" 236 "[[254,331,384,384]]" 236 "Panda" "blue" "degradated" "underlined" "31" 0
1198.336 3.609 5144723 "Exp.Trial" "MASKSCREEN_START_Hülle_K_LET_N_252" 237 "[[241,318,384,384]]" 237 "Hülle" "black" "non-degradated" "not underlined" "294" NA
1203.415 1.943 5149802 "Exp.Trial" "MASKSCREEN_START_Lunge_E_LET_U_476" 238 "[[465,542,384,384]]" 238 "Lunge" "blue" "non-degradated" "underlined" "81" NA
1206.8 2.695 5153187 "Exp.Trial" "MASKSCREEN_START_Blitz_E_LET_N_575" 239 "[[564,641,384,384]]" 239 "Blitz" "blue" "non-degradated" "not underlined" "121" NA
1210.902 1.545 5157289 "Exp.Trial" "MASKSCREEN_START_Delta_E_LET_N_302" 240 "[[291,368,384,384]]" 240 "Delta" "blue" "non-degradated" "not underlined" "131" NA
1213.982 1.734 5160369 "Exp.Trial" "MASKSCREEN_START_Pedal_K_DEG_N_314" 241 "[[303,380,384,384]]" 241 "Pedal" "black" "degradated" "not underlined" "214" NA
1217.131 1.884 5163518 "Exp.Trial" "MASKSCREEN_START_Tulpe_K_LET_U_500" 242 "[[489,566,384,384]]" 242 "Tulpe" "black" "non-degradated" "underlined" "245" NA
1220.682 1.967 5167069 "Exp.Trial" "MASKSCREEN_START_Minze_K_LET_N_252" 243 "[[241,318,384,384]]" 243 "Minze" "black" "non-degradated" "not underlined" "303" 0
1228.148 1.503 5174535 "Exp.Trial" "MASKSCREEN_START_Lager_E_LET_N_228" 244 "[[217,294,384,384]]" 244 "Lager" "blue" "non-degradated" "not underlined" "145" NA
1233.241 3.331 5179628 "Exp.Trial" "MASKSCREEN_START_Sehne_E_DEG_U_376" 245 "[[365,442,384,384]]" 245 "Sehne" "blue" "degradated" "underlined" "26" NA
1238.165 2.352 5184552 "Exp.Trial" "MASKSCREEN_START_Raupe_E_LET_N_339" 246 "[[328,405,384,384]]" 246 "Raupe" "blue" "non-degradated" "not underlined" "153" NA
1242.182 1.731 5188569 "Exp.Trial" "MASKSCREEN_START_Quast_E_DEG_N_550" 247 "[[539,616,384,384]]" 247 "Quast" "blue" "degradated" "not underlined" "61" NA
1247.107 3.332 5193494 "Exp.Trial" "MASKSCREEN_START_Korps_K_LET_N_550" 248 "[[539,616,384,384]]" 248 "Korps" "black" "non-degradated" "not underlined" "309" NA
1251.946 3.163 5198333 "Exp.Trial" "MASKSCREEN_START_Lette_E_LET_U_228" 249 "[[217,294,384,384]]" 249 "Lette" "blue" "non-degradated" "underlined" "96" NA
1256.801 2.272 5203188 "Exp.Trial" "MASKSCREEN_START_Depot_E_LET_N_252" 250 "[[241,318,384,384]]" 250 "Depot" "blue" "non-degradated" "not underlined" "135" NA
1260.662 2.389 5207049 "Exp.Trial" "MASKSCREEN_START_Axiom_E_DEG_U_364" 251 "[[353,430,384,384]]" 251 "Axiom" "blue" "degradated" "underlined" "27" NA
1264.738 3.229 5211125 "Exp.Trial" "MASKSCREEN_START_Fauna_E_DEG_N_339" 252 "[[328,405,384,384]]" 252 "Fauna" "blue" "degradated" "not underlined" "68" 0
1281.626 2.752 5228013 "Exp.Trial" "MASKSCREEN_START_Gramm_K_LET_U_538" 253 "[[527,604,384,384]]" 253 "Gramm" "black" "non-degradated" "underlined" "279" NA
1286.06 4.688 5232447 "Exp.Trial" "MASKSCREEN_START_Kluft_K_LET_U_277" 254 "[[266,343,384,384]]" 254 "Kluft" "black" "non-degradated" "underlined" "258" NA
1292.32 2.199 5238707 "Exp.Trial" "MASKSCREEN_START_Tante_K_DEG_N_265" 255 "[[254,331,384,384]]" 255 "Tante" "black" "degradated" "not underlined" "215" NA
1296.098 3.135 5242485 "Exp.Trial" "MASKSCREEN_START_Sense_E_DEG_N_252" 256 "[[241,318,384,384]]" 256 "Sense" "blue" "degradated" "not underlined" "44" NA
1300.83 2.353 5247217 "Exp.Trial" "MASKSCREEN_START_Balte_K_DEG_N_265" 257 "[[254,331,384,384]]" 257 "Balte" "black" "degradated" "not underlined" "239" NA
1304.821 1.398 5251208 "Exp.Trial" "MASKSCREEN_START_Trupp_K_LET_U_240" 258 "[[229,306,384,384]]" 258 "Trupp" "black" "non-degradated" "underlined" "262" 0
1311.983 1.542 5258370 "Exp.Trial" "MASKSCREEN_START_Münze_E_LET_U_352" 259 "[[341,418,384,384]]" 259 "Münze" "blue" "non-degradated" "underlined" "94" NA
1315.154 3.736 5261541 "Exp.Trial" "MASKSCREEN_START_Beleg_K_DEG_N_327" 260 "[[316,393,384,384]]" 260 "Beleg" "black" "degradated" "not underlined" "212" NA
1320.287 3.275 5266674 "Exp.Trial" "MASKSCREEN_START_Kakao_K_DEG_N_525" 261 "[[514,591,384,384]]" 261 "Kakao" "black" "degradated" "not underlined" "208" NA
1325.111 2.122 5271498 "Exp.Trial" "MASKSCREEN_START_Kiste_K_DEG_U_401" 262 "[[390,467,384,384]]" 262 "Kiste" "black" "degradated" "underlined" "187" NA
1329.793 1.631 5276180 "Exp.Trial" "MASKSCREEN_START_Amsel_E_LET_N_240" 263 "[[229,306,384,384]]" 263 "Amsel" "blue" "non-degradated" "not underlined" "137" 0
1336.591 2.406 5282978 "Exp.Trial" "MASKSCREEN_START_Armee_K_LET_N_290" 264 "[[279,356,384,384]]" 264 "Armee" "black" "non-degradated" "not underlined" "284" NA
1340.608 1.384 5286995 "Exp.Trial" "MASKSCREEN_START_Luder_K_LET_U_314" 265 "[[303,380,384,384]]" 265 "Luder" "black" "non-degradated" "underlined" "259" 0
1347.929 1.827 5294316 "Exp.Trial" "MASKSCREEN_START_Nylon_E_LET_N_228" 266 "[[217,294,384,384]]" 266 "Nylon" "blue" "non-degradated" "not underlined" "139" NA
1352.489 2.617 5298876 "Exp.Trial" "MASKSCREEN_START_Nagel_E_DEG_N_376" 267 "[[365,442,384,384]]" 267 "Nagel" "blue" "degradated" "not underlined" "65" NA
1356.764 2.918 5303151 "Exp.Trial" "MASKSCREEN_START_Agent_K_LET_N_401" 268 "[[390,467,384,384]]" 268 "Agent" "black" "non-degradated" "not underlined" "291" 0
1365.639 2.421 5312026 "Exp.Trial" "MASKSCREEN_START_Feger_K_LET_N_240" 269 "[[229,306,384,384]]" 269 "Feger" "black" "non-degradated" "not underlined" "285" NA
1369.63 3.096 5316017 "Exp.Trial" "MASKSCREEN_START_Kongo_E_DEG_U_228" 270 "[[217,294,384,384]]" 270 "Kongo" "blue" "degradated" "underlined" "15" NA
1374.435 2.261 5320822 "Exp.Trial" "MASKSCREEN_START_Reuse_K_LET_N_327" 271 "[[316,393,384,384]]" 271 "Reuse" "black" "non-degradated" "not underlined" "315" NA
1378.135 3.497 5324522 "Exp.Trial" "MASKSCREEN_START_Organ_K_LET_N_339" 272 "[[328,405,384,384]]" 272 "Organ" "black" "non-degradated" "not underlined" "305" NA
1383.232 1.486 5329619 "Exp.Trial" "MASKSCREEN_START_Vogel_K_DEG_N_228" 273 "[[217,294,384,384]]" 273 "Vogel" "black" "degradated" "not underlined" "206" NA
1386.344 1.85 5332731 "Exp.Trial" "MASKSCREEN_START_Bombe_E_LET_N_265" 274 "[[254,331,384,384]]" 274 "Bombe" "blue" "non-degradated" "not underlined" "129" 0
1396.456 2.141 5342843 "Exp.Trial" "MASKSCREEN_START_Blatt_E_LET_U_228" 275 "[[217,294,384,384]]" 275 "Blatt" "blue" "non-degradated" "underlined" "115" NA
1400.132 2.995 5346519 "Exp.Trial" "MASKSCREEN_START_Salbe_K_LET_U_277" 276 "[[266,343,384,384]]" 276 "Salbe" "black" "non-degradated" "underlined" "247" NA
1404.752 5.991 5351139 "Exp.Trial" "MASKSCREEN_START_Sühne_E_DEG_U_748" 277 "[[737,814,384,384]]" 277 "Sühne" "blue" "degradated" "underlined" "18" NA
1412.134 1.89 5358521 "Exp.Trial" "MASKSCREEN_START_Gebet_E_LET_N_339" 278 "[[328,405,384,384]]" 278 "Gebet" "blue" "non-degradated" "not underlined" "156" NA
1415.381 1.762 5361768 "Exp.Trial" "MASKSCREEN_START_Ratte_E_DEG_N_339" 279 "[[328,405,384,384]]" 279 "Ratte" "blue" "degradated" "not underlined" "49" NA
1418.612 3.559 5364999 "Exp.Trial" "MASKSCREEN_START_Abbau_K_LET_N_376" 280 "[[365,442,384,384]]" 280 "Abbau" "black" "non-degradated" "not underlined" "302" NA
1423.519 2.696 5369906 "Exp.Trial" "MASKSCREEN_START_Mähre_K_DEG_U_401" 281 "[[390,467,384,384]]" 281 "Mähre" "black" "degradated" "underlined" "167" NA
1427.793 2.729 5374180 "Exp.Trial" "MASKSCREEN_START_Yacht_E_DEG_U_215" 282 "[[204,281,384,384]]" 282 "Yacht" "blue" "degradated" "underlined" "28" NA
1432.161 3.478 5378548 "Exp.Trial" "MASKSCREEN_START_Hüter_E_DEG_N_215" 283 "[[204,281,384,384]]" 283 "Hüter" "blue" "degradated" "not underlined" "66" NA
1438.382 2.292 5384769 "Exp.Trial" "MASKSCREEN_START_Felge_E_LET_N_401" 284 "[[390,467,384,384]]" 284 "Felge" "blue" "non-degradated" "not underlined" "160" NA
1442.284 2.83 5388671 "Exp.Trial" "MASKSCREEN_START_Porto_E_DEG_N_290" 285 "[[279,356,384,384]]" 285 "Porto" "blue" "degradated" "not underlined" "59" NA
1446.708 2.894 5393095 "Exp.Trial" "MASKSCREEN_START_Fjord_K_LET_N_414" 286 "[[403,480,384,384]]" 286 "Fjord" "black" "non-degradated" "not underlined" "283" NA
1451.167 4.075 5397554 "Exp.Trial" "MASKSCREEN_START_Büste_E_DEG_U_302" 287 "[[291,368,384,384]]" 287 "Büste" "blue" "degradated" "underlined" "25" NA
1456.797 2.142 5403184 "Exp.Trial" "MASKSCREEN_START_Fötus_K_LET_N_352" 288 "[[341,418,384,384]]" 288 "Fötus" "black" "non-degradated" "not underlined" "289" NA
1460.473 2.31 5406860 "Exp.Trial" "MASKSCREEN_START_Klaps_E_DEG_N_401" 289 "[[390,467,384,384]]" 289 "Klaps" "blue" "degradated" "not underlined" "70" NA
1464.437 2.256 5410824 "Exp.Trial" "MASKSCREEN_START_Eifer_E_LET_U_376" 290 "[[365,442,384,384]]" 290 "Eifer" "blue" "non-degradated" "underlined" "84" 0
1474.806 4.147 5421193 "Exp.Trial" "MASKSCREEN_START_Opfer_E_LET_N_339" 291 "[[328,405,384,384]]" 291 "Opfer" "blue" "non-degradated" "not underlined" "157" 0
1488.109 2.259 5434496 "Exp.Trial" "MASKSCREEN_START_Szene_E_DEG_U_240" 292 "[[229,306,384,384]]" 292 "Szene" "blue" "degradated" "underlined" "23" NA
1492.788 1.897 5439175 "Exp.Trial" "MASKSCREEN_START_Buche_E_LET_N_339" 293 "[[328,405,384,384]]" 293 "Buche" "blue" "non-degradated" "not underlined" "122" 0
1500.768 2.021 5447155 "Exp.Trial" "MASKSCREEN_START_Pizza_K_DEG_N_277" 294 "[[266,343,384,384]]" 294 "Pizza" "black" "degradated" "not underlined" "211" NA
1504.465 1.778 5450852 "Exp.Trial" "MASKSCREEN_START_Modul_E_LET_N_513" 295 "[[502,579,384,384]]" 295 "Modul" "blue" "non-degradated" "not underlined" "127" NA
1507.831 2.997 5454218 "Exp.Trial" "MASKSCREEN_START_Party_K_DEG_U_376" 296 "[[365,442,384,384]]" 296 "Party" "black" "degradated" "underlined" "184" 0
1518.209 2.1 5464596 "Exp.Trial" "MASKSCREEN_START_Wolle_E_LET_N_376" 297 "[[365,442,384,384]]" 297 "Wolle" "blue" "non-degradated" "not underlined" "159" NA
1521.964 3.796 5468351 "Exp.Trial" "MASKSCREEN_START_Beize_E_DEG_N_265" 298 "[[254,331,384,384]]" 298 "Beize" "blue" "degradated" "not underlined" "58" NA
1527.44 2.679 5473827 "Exp.Trial" "MASKSCREEN_START_Zobel_E_LET_N_290" 299 "[[279,356,384,384]]" 299 "Zobel" "blue" "non-degradated" "not underlined" "158" NA
1531.741 1.787 5478128 "Exp.Trial" "MASKSCREEN_START_Beruf_E_DEG_U_314" 300 "[[303,380,384,384]]" 300 "Beruf" "blue" "degradated" "underlined" "17" NA
1535.068 2.997 5481455 "Exp.Trial" "MASKSCREEN_START_Eimer_K_DEG_N_538" 301 "[[527,604,384,384]]" 301 "Eimer" "black" "degradated" "not underlined" "216" NA
1539.462 2.089 5485849 "Exp.Trial" "MASKSCREEN_START_Lachs_E_DEG_U_352" 302 "[[341,418,384,384]]" 302 "Lachs" "blue" "degradated" "underlined" "24" NA
1543.166 2.44 5489553 "Exp.Trial" "MASKSCREEN_START_Dunst_E_LET_N_277" 303 "[[266,343,384,384]]" 303 "Dunst" "blue" "non-degradated" "not underlined" "150" NA
1547.003 1.554 5493390 "Exp.Trial" "MASKSCREEN_START_Twist_E_DEG_N_314" 304 "[[303,380,384,384]]" 304 "Twist" "blue" "degradated" "not underlined" "79" 0
1555.48 1.875 5501867 "Exp.Trial" "MASKSCREEN_START_Manko_K_DEG_U_265" 305 "[[254,331,384,384]]" 305 "Manko" "black" "degradated" "underlined" "173" NA
1558.952 2.395 5505339 "Exp.Trial" "MASKSCREEN_START_Probe_E_LET_U_240" 306 "[[229,306,384,384]]" 306 "Probe" "blue" "non-degradated" "underlined" "117" NA
1563.74 2.37 5510127 "Exp.Trial" "MASKSCREEN_START_Aktie_K_LET_U_265" 307 "[[254,331,384,384]]" 307 "Aktie" "black" "non-degradated" "underlined" "248" NA
1567.623 2.125 5514010 "Exp.Trial" "MASKSCREEN_START_Karat_E_DEG_U_339" 308 "[[328,405,384,384]]" 308 "Karat" "blue" "degradated" "underlined" "37" NA
1571.372 1.486 5517759 "Exp.Trial" "MASKSCREEN_START_Pilot_E_LET_N_265" 309 "[[254,331,384,384]]" 309 "Pilot" "blue" "non-degradated" "not underlined" "132" NA
1574.453 3.15 5520840 "Exp.Trial" "MASKSCREEN_START_Etage_K_LET_U_228" 310 "[[217,294,384,384]]" 310 "Etage" "black" "non-degradated" "underlined" "260" NA
1578.964 1.891 5525351 "Exp.Trial" "MASKSCREEN_START_Kette_K_DEG_U_252" 311 "[[241,318,384,384]]" 311 "Kette" "black" "degradated" "underlined" "199" NA
1582.478 2.007 5528865 "Exp.Trial" "MASKSCREEN_START_Knast_K_LET_U_327" 312 "[[316,393,384,384]]" 312 "Knast" "black" "non-degradated" "underlined" "278" NA
1586.123 2.48 5532510 "Exp.Trial" "MASKSCREEN_START_Moder_E_LET_U_265" 313 "[[254,331,384,384]]" 313 "Moder" "blue" "non-degradated" "underlined" "97" NA
1590.922 1.967 5537309 "Exp.Trial" "MASKSCREEN_START_Sünde_K_DEG_N_265" 314 "[[254,331,384,384]]" 314 "Sünde" "black" "degradated" "not underlined" "207" NA
1594.314 3.062 5540701 "Exp.Trial" "MASKSCREEN_START_Kater_K_LET_U_277" 315 "[[266,343,384,384]]" 315 "Kater" "black" "non-degradated" "underlined" "252" NA
1598.954 2.579 5545341 "Exp.Trial" "MASKSCREEN_START_Thron_K_LET_N_203" 316 "[[192,269,384,384]]" 316 "Thron" "black" "non-degradated" "not underlined" "307" NA
1603.236 4.017 5549623 "Exp.Trial" "MASKSCREEN_START_Atoll_E_LET_U_513" 317 "[[502,579,384,384]]" 317 "Atoll" "blue" "non-degradated" "underlined" "98" NA
1608.872 2.474 5555259 "Exp.Trial" "MASKSCREEN_START_Teint_K_DEG_N_302" 318 "[[291,368,384,384]]" 318 "Teint" "black" "degradated" "not underlined" "229" NA
1613.107 2.395 5559494 "Exp.Trial" "MASKSCREEN_START_Stola_E_LET_N_352" 319 "[[341,418,384,384]]" 319 "Stola" "blue" "non-degradated" "not underlined" "124" 0
1621.357 1.459 5567744 "Exp.Trial" "MASKSCREEN_START_Mango_K_LET_N_228" 320 "[[217,294,384,384]]" 320 "Mango" "black" "non-degradated" "not underlined" "286" 0
