"onset" "duration" "sample" "trial_type" "eventIdentifier" "event_nr" "aoi" "trial" "target_word" "color" "mask" "underlining" "sentenceNr" "response"
0 2.614 14828402 "Exp.Trial" "MASKSCREEN_START_Wanst_E_DEG_U_476" 1 "[[465,542,384,384]]" 1 "Wanst" "blue" "degradated" "underlined" "297" NA
4.492 2.243 14832894 "Exp.Trial" "MASKSCREEN_START_Motte_K_LET_U_252" 2 "[[241,318,384,384]]" 2 "Motte" "black" "non-degradated" "underlined" "63" NA
8.39 2.678 14836792 "Exp.Trial" "MASKSCREEN_START_Kutte_K_LET_N_240" 3 "[[229,306,384,384]]" 3 "Kutte" "black" "non-degradated" "not underlined" "9" NA
12.724 2.257 14841126 "Exp.Trial" "MASKSCREEN_START_Nonne_E_LET_N_265" 4 "[[254,331,384,384]]" 4 "Nonne" "blue" "non-degradated" "not underlined" "198" NA
16.647 2.823 14845049 "Exp.Trial" "MASKSCREEN_START_Hafer_E_LET_N_203" 5 "[[192,269,384,384]]" 5 "Hafer" "blue" "non-degradated" "not underlined" "177" NA
21.116 2.056 14849518 "Exp.Trial" "MASKSCREEN_START_Dämon_E_LET_N_265" 6 "[[254,331,384,384]]" 6 "Dämon" "blue" "non-degradated" "not underlined" "192" NA
24.667 2.209 14853069 "Exp.Trial" "MASKSCREEN_START_Druck_K_LET_U_252" 7 "[[241,318,384,384]]" 7 "Druck" "black" "non-degradated" "underlined" "75" NA
28.304 2.487 14856706 "Exp.Trial" "MASKSCREEN_START_Feile_E_LET_N_302" 8 "[[291,368,384,384]]" 8 "Feile" "blue" "non-degradated" "not underlined" "185" NA
33.484 1.598 14861886 "Exp.Trial" "MASKSCREEN_START_Taube_K_LET_U_290" 9 "[[279,356,384,384]]" 9 "Taube" "black" "non-degradated" "underlined" "41" NA
36.714 2.195 14865116 "Exp.Trial" "MASKSCREEN_START_Armee_E_DEG_U_290" 10 "[[279,356,384,384]]" 10 "Armee" "blue" "degradated" "underlined" "284" NA
40.538 2.405 14868940 "Exp.Trial" "MASKSCREEN_START_Waffe_E_LET_N_389" 11 "[[378,455,384,384]]" 11 "Waffe" "blue" "non-degradated" "not underlined" "174" NA
44.534 2.094 14872936 "Exp.Trial" "MASKSCREEN_START_Stola_K_DEG_U_352" 12 "[[341,418,384,384]]" 12 "Stola" "black" "degradated" "underlined" "124" NA
48.047 2.314 14876449 "Exp.Trial" "MASKSCREEN_START_Heber_E_DEG_U_525" 13 "[[514,591,384,384]]" 13 "Heber" "blue" "degradated" "underlined" "292" NA
51.989 1.452 14880391 "Exp.Trial" "MASKSCREEN_START_Tante_E_LET_U_265" 14 "[[254,331,384,384]]" 14 "Tante" "blue" "non-degradated" "underlined" "215" NA
56.902 1.949 14885304 "Exp.Trial" "MASKSCREEN_START_Organ_E_DEG_U_339" 15 "[[328,405,384,384]]" 15 "Organ" "blue" "degradated" "underlined" "305" NA
60.44 1.858 14888842 "Exp.Trial" "MASKSCREEN_START_Eimer_E_LET_U_538" 16 "[[527,604,384,384]]" 16 "Eimer" "blue" "non-degradated" "underlined" "216" NA
63.934 1.94 14892336 "Exp.Trial" "MASKSCREEN_START_Hülle_E_DEG_U_252" 17 "[[241,318,384,384]]" 17 "Hülle" "blue" "degradated" "underlined" "294" NA
67.291 1.582 14895693 "Exp.Trial" "MASKSCREEN_START_Laich_K_DEG_N_327" 18 "[[316,393,384,384]]" 18 "Laich" "black" "degradated" "not underlined" "113" NA
70.404 1.344 14898806 "Exp.Trial" "MASKSCREEN_START_Wolle_K_DEG_U_376" 19 "[[365,442,384,384]]" 19 "Wolle" "black" "degradated" "underlined" "159" 0
77.753 1.35 14906155 "Exp.Trial" "MASKSCREEN_START_Stube_E_DEG_N_240" 20 "[[229,306,384,384]]" 20 "Stube" "blue" "degradated" "not underlined" "273" NA
80.72 1.872 14909122 "Exp.Trial" "MASKSCREEN_START_Villa_E_LET_U_314" 21 "[[303,380,384,384]]" 21 "Villa" "blue" "non-degradated" "underlined" "240" NA
84.218 1.615 14912620 "Exp.Trial" "MASKSCREEN_START_Lager_K_DEG_U_228" 22 "[[217,294,384,384]]" 22 "Lager" "black" "degradated" "underlined" "145" 0
92.875 1.223 14921277 "Exp.Trial" "MASKSCREEN_START_Liege_E_DEG_N_215" 23 "[[204,281,384,384]]" 23 "Liege" "blue" "degradated" "not underlined" "280" NA
95.748 1.901 14924150 "Exp.Trial" "MASKSCREEN_START_Torte_K_DEG_U_240" 24 "[[229,306,384,384]]" 24 "Torte" "black" "degradated" "underlined" "149" NA
99.917 1.432 14928319 "Exp.Trial" "MASKSCREEN_START_Übung_K_DEG_N_228" 25 "[[217,294,384,384]]" 25 "Übung" "black" "degradated" "not underlined" "100" NA
102.971 1.757 14931373 "Exp.Trial" "MASKSCREEN_START_Seife_K_LET_N_290" 26 "[[279,356,384,384]]" 26 "Seife" "black" "non-degradated" "not underlined" "6" NA
106.325 2.388 14934727 "Exp.Trial" "MASKSCREEN_START_Buche_K_DEG_U_339" 27 "[[328,405,384,384]]" 27 "Buche" "black" "degradated" "underlined" "122" 0
116.328 1.474 14944730 "Exp.Trial" "MASKSCREEN_START_Abend_K_LET_N_252" 28 "[[241,318,384,384]]" 28 "Abend" "black" "non-degradated" "not underlined" "7" 0
124.805 1.56 14953207 "Exp.Trial" "MASKSCREEN_START_Delta_K_DEG_U_302" 29 "[[291,368,384,384]]" 29 "Delta" "black" "degradated" "underlined" "131" NA
128.03 2.46 14956432 "Exp.Trial" "MASKSCREEN_START_Fauna_K_LET_U_339" 30 "[[328,405,384,384]]" 30 "Fauna" "black" "non-degradated" "underlined" "68" NA
132.114 1.809 14960516 "Exp.Trial" "MASKSCREEN_START_Krebs_K_LET_N_228" 31 "[[217,294,384,384]]" 31 "Krebs" "black" "non-degradated" "not underlined" "29" 0
139.484 1.522 14967886 "Exp.Trial" "MASKSCREEN_START_Gecko_E_DEG_N_314" 32 "[[303,380,384,384]]" 32 "Gecko" "blue" "degradated" "not underlined" "268" NA
142.621 2.284 14971023 "Exp.Trial" "MASKSCREEN_START_Chrom_E_LET_U_277" 33 "[[266,343,384,384]]" 33 "Chrom" "blue" "non-degradated" "underlined" "213" 0
156.403 2.764 14984805 "Exp.Trial" "MASKSCREEN_START_Prinz_E_LET_N_265" 34 "[[254,331,384,384]]" 34 "Prinz" "blue" "non-degradated" "not underlined" "166" NA
160.786 2.251 14989188 "Exp.Trial" "MASKSCREEN_START_Laken_E_DEG_U_228" 35 "[[217,294,384,384]]" 35 "Laken" "blue" "degradated" "underlined" "298" NA
164.674 2.234 14993076 "Exp.Trial" "MASKSCREEN_START_Zeder_E_DEG_U_265" 36 "[[254,331,384,384]]" 36 "Zeder" "blue" "degradated" "underlined" "304" NA
168.497 2.155 14996899 "Exp.Trial" "MASKSCREEN_START_Eifer_K_DEG_N_376" 37 "[[365,442,384,384]]" 37 "Eifer" "black" "degradated" "not underlined" "84" NA
172.268 2.132 15000670 "Exp.Trial" "MASKSCREEN_START_Stamm_E_DEG_N_414" 38 "[[403,480,384,384]]" 38 "Stamm" "blue" "degradated" "not underlined" "274" NA
177.333 1.916 15005735 "Exp.Trial" "MASKSCREEN_START_Werft_K_DEG_N_376" 39 "[[365,442,384,384]]" 39 "Werft" "black" "degradated" "not underlined" "87" NA
180.85 2.796 15009252 "Exp.Trial" "MASKSCREEN_START_Zwerg_K_DEG_N_252" 40 "[[241,318,384,384]]" 40 "Zwerg" "black" "degradated" "not underlined" "93" NA
185.299 2.758 15013701 "Exp.Trial" "MASKSCREEN_START_Würde_K_DEG_N_376" 41 "[[365,442,384,384]]" 41 "Würde" "black" "degradated" "not underlined" "104" NA
189.7 1.245 15018102 "Exp.Trial" "MASKSCREEN_START_Anker_K_LET_N_290" 42 "[[279,356,384,384]]" 42 "Anker" "black" "non-degradated" "not underlined" "22" NA
192.548 1.637 15020950 "Exp.Trial" "MASKSCREEN_START_Panda_K_LET_N_265" 43 "[[254,331,384,384]]" 43 "Panda" "black" "non-degradated" "not underlined" "31" 0
201.138 1.33 15029540 "Exp.Trial" "MASKSCREEN_START_Feger_E_DEG_U_240" 44 "[[229,306,384,384]]" 44 "Feger" "blue" "degradated" "underlined" "285" NA
205.168 2.043 15033570 "Exp.Trial" "MASKSCREEN_START_Kakao_E_LET_U_525" 45 "[[514,591,384,384]]" 45 "Kakao" "blue" "non-degradated" "underlined" "208" NA
208.784 1.588 15037186 "Exp.Trial" "MASKSCREEN_START_Mango_E_DEG_U_228" 46 "[[217,294,384,384]]" 46 "Mango" "blue" "degradated" "underlined" "286" 0
216.479 2.058 15044881 "Exp.Trial" "MASKSCREEN_START_Kehle_E_DEG_U_277" 47 "[[266,343,384,384]]" 47 "Kehle" "blue" "degradated" "underlined" "319" NA
220.196 1.218 15048598 "Exp.Trial" "MASKSCREEN_START_Rache_E_LET_U_302" 48 "[[291,368,384,384]]" 48 "Rache" "blue" "non-degradated" "underlined" "223" NA
223.064 5.03 15051466 "Exp.Trial" "MASKSCREEN_START_Sense_K_LET_U_252" 49 "[[241,318,384,384]]" 49 "Sense" "black" "non-degradated" "underlined" "44" NA
229.741 1.714 15058143 "Exp.Trial" "MASKSCREEN_START_Tarif_K_DEG_N_215" 50 "[[204,281,384,384]]" 50 "Tarif" "black" "degradated" "not underlined" "90" NA
233.088 1.974 15061490 "Exp.Trial" "MASKSCREEN_START_China_E_DEG_N_302" 51 "[[291,368,384,384]]" 51 "China" "blue" "degradated" "not underlined" "257" NA
236.659 1.435 15065061 "Exp.Trial" "MASKSCREEN_START_Stern_E_LET_U_228" 52 "[[217,294,384,384]]" 52 "Stern" "blue" "non-degradated" "underlined" "237" NA
240.926 1.778 15069328 "Exp.Trial" "MASKSCREEN_START_Zicke_E_LET_N_252" 53 "[[241,318,384,384]]" 53 "Zicke" "blue" "non-degradated" "not underlined" "183" NA
244.313 1.468 15072715 "Exp.Trial" "MASKSCREEN_START_Kelch_K_LET_N_327" 54 "[[316,393,384,384]]" 54 "Kelch" "black" "non-degradated" "not underlined" "8" NA
247.439 1.907 15075841 "Exp.Trial" "MASKSCREEN_START_Manko_E_LET_N_265" 55 "[[254,331,384,384]]" 55 "Manko" "blue" "non-degradated" "not underlined" "173" NA
250.939 1.482 15079341 "Exp.Trial" "MASKSCREEN_START_Genre_E_DEG_N_228" 56 "[[217,294,384,384]]" 56 "Genre" "blue" "degradated" "not underlined" "249" 0
259.908 1.368 15088310 "Exp.Trial" "MASKSCREEN_START_Klotz_K_DEG_U_252" 57 "[[241,318,384,384]]" 57 "Klotz" "black" "degradated" "underlined" "136" NA
262.879 1.541 15091281 "Exp.Trial" "MASKSCREEN_START_Zwang_E_DEG_N_352" 58 "[[341,418,384,384]]" 58 "Zwang" "blue" "degradated" "not underlined" "272" NA
266.033 1.789 15094435 "Exp.Trial" "MASKSCREEN_START_Nudel_K_DEG_U_426" 59 "[[415,492,384,384]]" 59 "Nudel" "black" "degradated" "underlined" "154" NA
269.498 2.052 15097900 "Exp.Trial" "MASKSCREEN_START_Sturz_E_LET_U_228" 60 "[[217,294,384,384]]" 60 "Sturz" "blue" "non-degradated" "underlined" "219" NA
274.092 1.521 15102494 "Exp.Trial" "MASKSCREEN_START_Klima_K_DEG_U_252" 61 "[[241,318,384,384]]" 61 "Klima" "black" "degradated" "underlined" "141" NA
277.331 1.624 15105733 "Exp.Trial" "MASKSCREEN_START_Bauer_E_LET_N_389" 62 "[[378,455,384,384]]" 62 "Bauer" "blue" "non-degradated" "not underlined" "196" NA
281.574 1.535 15109976 "Exp.Trial" "MASKSCREEN_START_Amsel_K_DEG_U_240" 63 "[[229,306,384,384]]" 63 "Amsel" "black" "degradated" "underlined" "137" NA
284.687 1.731 15113089 "Exp.Trial" "MASKSCREEN_START_Tunke_K_LET_N_252" 64 "[[241,318,384,384]]" 64 "Tunke" "black" "non-degradated" "not underlined" "30" NA
287.833 2.327 15116235 "Exp.Trial" "MASKSCREEN_START_Quast_K_LET_U_550" 65 "[[539,616,384,384]]" 65 "Quast" "black" "non-degradated" "underlined" "61" NA
291.776 2.443 15120178 "Exp.Trial" "MASKSCREEN_START_Mimik_E_DEG_U_352" 66 "[[341,418,384,384]]" 66 "Mimik" "blue" "degradated" "underlined" "293" 0
300.949 1.666 15129351 "Exp.Trial" "MASKSCREEN_START_Masse_K_LET_U_228" 67 "[[217,294,384,384]]" 67 "Masse" "black" "non-degradated" "underlined" "50" NA
305.491 2.014 15133893 "Exp.Trial" "MASKSCREEN_START_Witwe_K_LET_U_352" 68 "[[341,418,384,384]]" 68 "Witwe" "black" "non-degradated" "underlined" "64" 0
315.429 1.667 15143831 "Exp.Trial" "MASKSCREEN_START_Insel_K_LET_N_339" 69 "[[328,405,384,384]]" 69 "Insel" "black" "non-degradated" "not underlined" "2" NA
320.573 1.983 15148975 "Exp.Trial" "MASKSCREEN_START_Ruder_E_LET_U_252" 70 "[[241,318,384,384]]" 70 "Ruder" "blue" "non-degradated" "underlined" "228" NA
324.163 1.846 15152565 "Exp.Trial" "MASKSCREEN_START_Mähre_E_LET_N_401" 71 "[[390,467,384,384]]" 71 "Mähre" "blue" "non-degradated" "not underlined" "167" NA
327.364 1.399 15155766 "Exp.Trial" "MASKSCREEN_START_Falle_E_DEG_N_339" 72 "[[328,405,384,384]]" 72 "Falle" "blue" "degradated" "not underlined" "244" NA
330.331 1.246 15158733 "Exp.Trial" "MASKSCREEN_START_Ikone_E_DEG_N_314" 73 "[[303,380,384,384]]" 73 "Ikone" "blue" "degradated" "not underlined" "267" NA
333.126 1.363 15161528 "Exp.Trial" "MASKSCREEN_START_Dunst_K_DEG_U_277" 74 "[[266,343,384,384]]" 74 "Dunst" "black" "degradated" "underlined" "150" NA
337.042 2.067 15165444 "Exp.Trial" "MASKSCREEN_START_Opfer_K_DEG_U_339" 75 "[[328,405,384,384]]" 75 "Opfer" "black" "degradated" "underlined" "157" NA
340.753 1.884 15169155 "Exp.Trial" "MASKSCREEN_START_Kreml_E_LET_U_488" 76 "[[477,554,384,384]]" 76 "Kreml" "blue" "non-degradated" "underlined" "222" NA
344.045 1.149 15172447 "Exp.Trial" "MASKSCREEN_START_These_K_LET_U_376" 77 "[[365,442,384,384]]" 77 "These" "black" "non-degradated" "underlined" "53" NA
348.194 1.444 15176596 "Exp.Trial" "MASKSCREEN_START_Gerät_K_DEG_N_277" 78 "[[266,343,384,384]]" 78 "Gerät" "black" "degradated" "not underlined" "119" NA
351.262 1.845 15179664 "Exp.Trial" "MASKSCREEN_START_Lauch_E_LET_N_500" 79 "[[489,566,384,384]]" 79 "Lauch" "blue" "non-degradated" "not underlined" "197" NA
354.74 1.539 15183142 "Exp.Trial" "MASKSCREEN_START_Bürde_E_LET_U_290" 80 "[[279,356,384,384]]" 80 "Bürde" "blue" "non-degradated" "underlined" "238" NA
357.92 1.644 15186322 "Exp.Trial" "MASKSCREEN_START_Troll_K_LET_U_426" 81 "[[415,492,384,384]]" 81 "Troll" "black" "non-degradated" "underlined" "57" 0
365.978 1.559 15194380 "Exp.Trial" "MASKSCREEN_START_Pfund_E_LET_N_426" 82 "[[415,492,384,384]]" 82 "Pfund" "blue" "non-degradated" "not underlined" "164" NA
369.131 1.857 15197533 "Exp.Trial" "MASKSCREEN_START_Agent_E_DEG_U_401" 83 "[[390,467,384,384]]" 83 "Agent" "blue" "degradated" "underlined" "291" NA
372.609 1.825 15201011 "Exp.Trial" "MASKSCREEN_START_Bühne_K_DEG_N_488" 84 "[[477,554,384,384]]" 84 "Bühne" "black" "degradated" "not underlined" "101" NA
375.823 1.356 15204225 "Exp.Trial" "MASKSCREEN_START_Raser_K_LET_N_290" 85 "[[279,356,384,384]]" 85 "Raser" "black" "non-degradated" "not underlined" "3" NA
378.751 1.25 15207153 "Exp.Trial" "MASKSCREEN_START_Decke_K_DEG_N_414" 86 "[[403,480,384,384]]" 86 "Decke" "black" "degradated" "not underlined" "86" NA
381.439 1.772 15209841 "Exp.Trial" "MASKSCREEN_START_Lauge_E_LET_U_240" 87 "[[229,306,384,384]]" 87 "Lauge" "blue" "non-degradated" "underlined" "236" NA
385.808 2.195 15214210 "Exp.Trial" "MASKSCREEN_START_Zinke_E_LET_N_240" 88 "[[229,306,384,384]]" 88 "Zinke" "blue" "non-degradated" "not underlined" "168" 0
395.593 1.974 15223995 "Exp.Trial" "MASKSCREEN_START_Motor_K_DEG_N_252" 89 "[[241,318,384,384]]" 89 "Motor" "black" "degradated" "not underlined" "89" NA
399.156 1.332 15227558 "Exp.Trial" "MASKSCREEN_START_Salbe_E_DEG_N_277" 90 "[[266,343,384,384]]" 90 "Salbe" "blue" "degradated" "not underlined" "247" NA
402.123 1.316 15230525 "Exp.Trial" "MASKSCREEN_START_Plage_K_LET_U_240" 91 "[[229,306,384,384]]" 91 "Plage" "black" "non-degradated" "underlined" "54" NA
406.439 1.72 15234841 "Exp.Trial" "MASKSCREEN_START_Bowle_E_DEG_N_215" 92 "[[204,281,384,384]]" 92 "Bowle" "blue" "degradated" "not underlined" "269" NA
409.903 1.982 15238305 "Exp.Trial" "MASKSCREEN_START_Orbit_E_DEG_U_228" 93 "[[217,294,384,384]]" 93 "Orbit" "blue" "degradated" "underlined" "287" NA
413.641 1.441 15242043 "Exp.Trial" "MASKSCREEN_START_Kuhle_K_LET_U_277" 94 "[[266,343,384,384]]" 94 "Kuhle" "black" "non-degradated" "underlined" "45" NA
416.688 1.323 15245090 "Exp.Trial" "MASKSCREEN_START_Tabak_E_DEG_U_290" 95 "[[279,356,384,384]]" 95 "Tabak" "blue" "degradated" "underlined" "316" 0
423.372 1.409 15251774 "Exp.Trial" "MASKSCREEN_START_Szene_K_LET_N_240" 96 "[[229,306,384,384]]" 96 "Szene" "black" "non-degradated" "not underlined" "23" NA
426.388 1.193 15254790 "Exp.Trial" "MASKSCREEN_START_Knabe_K_LET_N_252" 97 "[[241,318,384,384]]" 97 "Knabe" "black" "non-degradated" "not underlined" "1" NA
429.168 1.17 15257570 "Exp.Trial" "MASKSCREEN_START_Anruf_K_DEG_N_376" 98 "[[365,442,384,384]]" 98 "Anruf" "black" "degradated" "not underlined" "91" NA
431.903 1.154 15260305 "Exp.Trial" "MASKSCREEN_START_Pferd_E_DEG_U_228" 99 "[[217,294,384,384]]" 99 "Pferd" "blue" "degradated" "underlined" "282" NA
434.718 1.441 15263120 "Exp.Trial" "MASKSCREEN_START_Dekan_K_LET_N_265" 100 "[[254,331,384,384]]" 100 "Dekan" "black" "non-degradated" "not underlined" "11" NA
437.823 1.877 15266225 "Exp.Trial" "MASKSCREEN_START_Sorte_E_DEG_U_327" 101 "[[316,393,384,384]]" 101 "Sorte" "blue" "degradated" "underlined" "299" NA
441.136 2.282 15269538 "Exp.Trial" "MASKSCREEN_START_Dicke_K_LET_U_314" 102 "[[303,380,384,384]]" 102 "Dicke" "black" "non-degradated" "underlined" "43" NA
445.105 1.121 15273507 "Exp.Trial" "MASKSCREEN_START_Viper_K_LET_N_364" 103 "[[353,430,384,384]]" 103 "Viper" "black" "non-degradated" "not underlined" "19" NA
448.824 1.571 15277226 "Exp.Trial" "MASKSCREEN_START_Kugel_E_LET_N_314" 104 "[[303,380,384,384]]" 104 "Kugel" "blue" "non-degradated" "not underlined" "186" NA
451.952 1.378 15280354 "Exp.Trial" "MASKSCREEN_START_Ritze_E_DEG_U_228" 105 "[[217,294,384,384]]" 105 "Ritze" "blue" "degradated" "underlined" "318" NA
454.966 1.133 15283368 "Exp.Trial" "MASKSCREEN_START_Nagel_K_LET_U_376" 106 "[[365,442,384,384]]" 106 "Nagel" "black" "non-degradated" "underlined" "65" NA
458.967 1.355 15287369 "Exp.Trial" "MASKSCREEN_START_Buchs_K_LET_N_426" 107 "[[415,492,384,384]]" 107 "Buchs" "black" "non-degradated" "not underlined" "5" NA
461.954 1.313 15290356 "Exp.Trial" "MASKSCREEN_START_Kolik_E_DEG_N_302" 108 "[[291,368,384,384]]" 108 "Kolik" "blue" "degradated" "not underlined" "253" NA
465.851 1.292 15294253 "Exp.Trial" "MASKSCREEN_START_Alter_E_DEG_U_228" 109 "[[217,294,384,384]]" 109 "Alter" "blue" "degradated" "underlined" "296" NA
470.67 1.411 15299072 "Exp.Trial" "MASKSCREEN_START_Wuchs_K_DEG_N_228" 110 "[[217,294,384,384]]" 110 "Wuchs" "black" "degradated" "not underlined" "85" 0
478.298 1.238 15306700 "Exp.Trial" "MASKSCREEN_START_Rinde_K_DEG_U_314" 111 "[[303,380,384,384]]" 111 "Rinde" "black" "degradated" "underlined" "148" 0
485.214 1.505 15313616 "Exp.Trial" "MASKSCREEN_START_Ziege_K_LET_U_451" 112 "[[440,517,384,384]]" 112 "Ziege" "black" "non-degradated" "underlined" "51" NA
488.342 1.509 15316744 "Exp.Trial" "MASKSCREEN_START_Ahorn_E_LET_N_228" 113 "[[217,294,384,384]]" 113 "Ahorn" "blue" "non-degradated" "not underlined" "193" NA
492.822 1.35 15321224 "Exp.Trial" "MASKSCREEN_START_Modul_K_DEG_U_513" 114 "[[502,579,384,384]]" 114 "Modul" "black" "degradated" "underlined" "127" NA
495.749 1.436 15324151 "Exp.Trial" "MASKSCREEN_START_Union_K_LET_U_215" 115 "[[204,281,384,384]]" 115 "Union" "black" "non-degradated" "underlined" "46" NA
499.879 1.411 15328281 "Exp.Trial" "MASKSCREEN_START_Radio_K_DEG_N_352" 116 "[[341,418,384,384]]" 116 "Radio" "black" "degradated" "not underlined" "109" NA
503.091 1.519 15331493 "Exp.Trial" "MASKSCREEN_START_Härte_K_LET_U_314" 117 "[[303,380,384,384]]" 117 "Härte" "black" "non-degradated" "underlined" "72" NA
506.224 1.008 15334626 "Exp.Trial" "MASKSCREEN_START_Münze_K_DEG_N_352" 118 "[[341,418,384,384]]" 118 "Münze" "black" "degradated" "not underlined" "94" NA
508.94 1.821 15337342 "Exp.Trial" "MASKSCREEN_START_Kluft_E_DEG_N_277" 119 "[[266,343,384,384]]" 119 "Kluft" "blue" "degradated" "not underlined" "258" NA
512.286 1.254 15340688 "Exp.Trial" "MASKSCREEN_START_Bombe_K_DEG_U_265" 120 "[[254,331,384,384]]" 120 "Bombe" "black" "degradated" "underlined" "129" NA
516.235 1.194 15344637 "Exp.Trial" "MASKSCREEN_START_Treff_E_DEG_N_302" 121 "[[291,368,384,384]]" 121 "Treff" "blue" "degradated" "not underlined" "270" NA
519.043 1.309 15347445 "Exp.Trial" "MASKSCREEN_START_Minze_E_DEG_U_252" 122 "[[241,318,384,384]]" 122 "Minze" "blue" "degradated" "underlined" "303" NA
522.023 1.198 15350425 "Exp.Trial" "MASKSCREEN_START_Gräte_E_DEG_N_240" 123 "[[229,306,384,384]]" 123 "Gräte" "blue" "degradated" "not underlined" "243" NA
526.026 1.569 15354428 "Exp.Trial" "MASKSCREEN_START_Garde_K_LET_N_364" 124 "[[353,430,384,384]]" 124 "Garde" "black" "non-degradated" "not underlined" "39" NA
528.934 1.273 15357336 "Exp.Trial" "MASKSCREEN_START_Beton_K_DEG_U_277" 125 "[[266,343,384,384]]" 125 "Beton" "black" "degradated" "underlined" "125" NA
531.882 1.233 15360284 "Exp.Trial" "MASKSCREEN_START_Twist_K_LET_U_314" 126 "[[303,380,384,384]]" 126 "Twist" "black" "non-degradated" "underlined" "79" NA
534.709 1.559 15363111 "Exp.Trial" "MASKSCREEN_START_Mafia_K_LET_N_314" 127 "[[303,380,384,384]]" 127 "Mafia" "black" "non-degradated" "not underlined" "16" NA
537.637 1.352 15366039 "Exp.Trial" "MASKSCREEN_START_Felge_K_DEG_U_401" 128 "[[390,467,384,384]]" 128 "Felge" "black" "degradated" "underlined" "160" 0
545.145 1.517 15373547 "Exp.Trial" "MASKSCREEN_START_Pfand_E_LET_U_414" 129 "[[403,480,384,384]]" 129 "Pfand" "blue" "non-degradated" "underlined" "201" NA
548.331 2.074 15376733 "Exp.Trial" "MASKSCREEN_START_Tisch_K_LET_U_488" 130 "[[477,554,384,384]]" 130 "Tisch" "black" "non-degradated" "underlined" "62" NA
551.922 1.538 15380324 "Exp.Trial" "MASKSCREEN_START_Tolle_E_DEG_U_513" 131 "[[502,579,384,384]]" 131 "Tolle" "blue" "degradated" "underlined" "300" NA
555.826 1.219 15384228 "Exp.Trial" "MASKSCREEN_START_Sitte_K_DEG_U_290" 132 "[[279,356,384,384]]" 132 "Sitte" "black" "degradated" "underlined" "151" NA
558.474 1.256 15386876 "Exp.Trial" "MASKSCREEN_START_Viola_E_LET_U_302" 133 "[[291,368,384,384]]" 133 "Viola" "blue" "non-degradated" "underlined" "217" NA
561.407 1.623 15389809 "Exp.Trial" "MASKSCREEN_START_Sumpf_E_LET_N_252" 134 "[[241,318,384,384]]" 134 "Sumpf" "blue" "non-degradated" "not underlined" "182" NA
565.982 0.954 15394384 "Exp.Trial" "MASKSCREEN_START_Spott_E_LET_N_265" 135 "[[254,331,384,384]]" 135 "Spott" "blue" "non-degradated" "not underlined" "180" 0
572.548 1.027 15400950 "Exp.Trial" "MASKSCREEN_START_Getön_E_LET_N_265" 136 "[[254,331,384,384]]" 136 "Getön" "blue" "non-degradated" "not underlined" "175" NA
576.066 1.85 15404468 "Exp.Trial" "MASKSCREEN_START_Würze_E_DEG_N_277" 137 "[[266,343,384,384]]" 137 "Würze" "blue" "degradated" "not underlined" "263" NA
580.906 1.316 15409308 "Exp.Trial" "MASKSCREEN_START_Beruf_K_LET_N_314" 138 "[[303,380,384,384]]" 138 "Beruf" "black" "non-degradated" "not underlined" "17" NA
583.845 1.016 15412247 "Exp.Trial" "MASKSCREEN_START_Belag_E_LET_U_252" 139 "[[241,318,384,384]]" 139 "Belag" "blue" "non-degradated" "underlined" "218" NA
587.682 1.638 15416084 "Exp.Trial" "MASKSCREEN_START_Strom_E_LET_N_240" 140 "[[229,306,384,384]]" 140 "Strom" "blue" "non-degradated" "not underlined" "163" NA
590.656 1.079 15419058 "Exp.Trial" "MASKSCREEN_START_Kleid_E_DEG_U_228" 141 "[[217,294,384,384]]" 141 "Kleid" "blue" "degradated" "underlined" "281" NA
593.53 1.565 15421932 "Exp.Trial" "MASKSCREEN_START_Meise_K_DEG_N_426" 142 "[[415,492,384,384]]" 142 "Meise" "black" "degradated" "not underlined" "105" NA
598.211 1.647 15426613 "Exp.Trial" "MASKSCREEN_START_Abbau_E_DEG_U_376" 143 "[[365,442,384,384]]" 143 "Abbau" "blue" "degradated" "underlined" "302" 0
607.12 1.583 15435522 "Exp.Trial" "MASKSCREEN_START_Achse_E_LET_N_252" 144 "[[241,318,384,384]]" 144 "Achse" "blue" "non-degradated" "not underlined" "172" 0
614.195 1.141 15442597 "Exp.Trial" "MASKSCREEN_START_Weihe_E_DEG_N_401" 145 "[[390,467,384,384]]" 145 "Weihe" "blue" "degradated" "not underlined" "264" NA
616.692 1.262 15445094 "Exp.Trial" "MASKSCREEN_START_Aktie_E_DEG_N_265" 146 "[[254,331,384,384]]" 146 "Aktie" "blue" "degradated" "not underlined" "248" NA
619.597 1.05 15447999 "Exp.Trial" "MASKSCREEN_START_Henne_E_DEG_U_228" 147 "[[217,294,384,384]]" 147 "Henne" "blue" "degradated" "underlined" "320" NA
624.029 1.928 15452431 "Exp.Trial" "MASKSCREEN_START_Korps_E_DEG_U_550" 148 "[[539,616,384,384]]" 148 "Korps" "blue" "degradated" "underlined" "309" NA
627.614 1.353 15456016 "Exp.Trial" "MASKSCREEN_START_Radar_E_DEG_U_228" 149 "[[217,294,384,384]]" 149 "Radar" "blue" "degradated" "underlined" "306" NA
631.437 1.752 15459839 "Exp.Trial" "MASKSCREEN_START_Zobel_K_DEG_U_290" 150 "[[279,356,384,384]]" 150 "Zobel" "black" "degradated" "underlined" "158" NA
634.854 1.305 15463256 "Exp.Trial" "MASKSCREEN_START_Wärme_K_LET_N_252" 151 "[[241,318,384,384]]" 151 "Wärme" "black" "non-degradated" "not underlined" "21" NA
637.796 1.571 15466198 "Exp.Trial" "MASKSCREEN_START_Heide_E_LET_N_376" 152 "[[365,442,384,384]]" 152 "Heide" "blue" "non-degradated" "not underlined" "191" NA
640.935 1.513 15469337 "Exp.Trial" "MASKSCREEN_START_Miliz_K_DEG_N_290" 153 "[[279,356,384,384]]" 153 "Miliz" "black" "degradated" "not underlined" "120" 0
650.673 1.251 15479075 "Exp.Trial" "MASKSCREEN_START_Reuse_E_DEG_U_327" 154 "[[316,393,384,384]]" 154 "Reuse" "blue" "degradated" "underlined" "315" NA
653.521 2.233 15481923 "Exp.Trial" "MASKSCREEN_START_Zuzug_K_DEG_N_327" 155 "[[316,393,384,384]]" 155 "Zuzug" "black" "degradated" "not underlined" "106" 0
662.75 1.436 15491152 "Exp.Trial" "MASKSCREEN_START_Panne_E_DEG_N_252" 156 "[[241,318,384,384]]" 156 "Panne" "blue" "degradated" "not underlined" "276" NA
665.849 1.122 15494251 "Exp.Trial" "MASKSCREEN_START_Rippe_K_LET_U_327" 157 "[[316,393,384,384]]" 157 "Rippe" "black" "non-degradated" "underlined" "56" NA
669.777 1.318 15498179 "Exp.Trial" "MASKSCREEN_START_Abzug_K_DEG_U_240" 158 "[[229,306,384,384]]" 158 "Abzug" "black" "degradated" "underlined" "130" 0
676.847 1.394 15505249 "Exp.Trial" "MASKSCREEN_START_Reibe_E_DEG_U_476" 159 "[[465,542,384,384]]" 159 "Reibe" "blue" "degradated" "underlined" "295" NA
679.861 1.518 15508263 "Exp.Trial" "MASKSCREEN_START_Obhut_K_LET_N_389" 160 "[[378,455,384,384]]" 160 "Obhut" "black" "non-degradated" "not underlined" "40" NA
683.578 1.352 15511980 "Exp.Trial" "MASKSCREEN_START_Wüste_E_DEG_N_277" 161 "[[266,343,384,384]]" 161 "Wüste" "blue" "degradated" "not underlined" "261" 0
690.458 1.123 15518860 "Exp.Trial" "MASKSCREEN_START_Musik_E_LET_N_438" 162 "[[427,504,384,384]]" 162 "Musik" "blue" "non-degradated" "not underlined" "200" NA
693.011 1.396 15521413 "Exp.Trial" "MASKSCREEN_START_Pizza_E_LET_U_277" 163 "[[266,343,384,384]]" 163 "Pizza" "blue" "non-degradated" "underlined" "211" NA
696.503 1.504 15524905 "Exp.Trial" "MASKSCREEN_START_König_E_LET_N_550" 164 "[[539,616,384,384]]" 164 "König" "blue" "non-degradated" "not underlined" "178" 0
704.762 1.176 15533164 "Exp.Trial" "MASKSCREEN_START_Abruf_K_LET_U_389" 165 "[[378,455,384,384]]" 165 "Abruf" "black" "non-degradated" "underlined" "71" NA
708.693 1.332 15537095 "Exp.Trial" "MASKSCREEN_START_Baske_K_LET_U_228" 166 "[[217,294,384,384]]" 166 "Baske" "black" "non-degradated" "underlined" "78" NA
712.395 1.465 15540797 "Exp.Trial" "MASKSCREEN_START_Zitat_E_DEG_U_376" 167 "[[365,442,384,384]]" 167 "Zitat" "blue" "degradated" "underlined" "311" NA
715.477 1.566 15543879 "Exp.Trial" "MASKSCREEN_START_Brust_E_DEG_N_314" 168 "[[303,380,384,384]]" 168 "Brust" "blue" "degradated" "not underlined" "251" 0
724.237 1.268 15552639 "Exp.Trial" "MASKSCREEN_START_Waage_E_DEG_N_302" 169 "[[291,368,384,384]]" 169 "Waage" "blue" "degradated" "not underlined" "255" 0
731.143 1.371 15559545 "Exp.Trial" "MASKSCREEN_START_Blech_K_LET_N_277" 170 "[[266,343,384,384]]" 170 "Blech" "black" "non-degradated" "not underlined" "36" NA
734.089 1.239 15562491 "Exp.Trial" "MASKSCREEN_START_Otter_K_DEG_N_290" 171 "[[279,356,384,384]]" 171 "Otter" "black" "degradated" "not underlined" "112" NA
736.897 1.272 15565299 "Exp.Trial" "MASKSCREEN_START_Notiz_E_DEG_N_302" 172 "[[291,368,384,384]]" 172 "Notiz" "blue" "degradated" "not underlined" "242" NA
739.758 1.413 15568160 "Exp.Trial" "MASKSCREEN_START_Götze_E_LET_N_488" 173 "[[477,554,384,384]]" 173 "Götze" "blue" "non-degradated" "not underlined" "179" 0
746.722 1.22 15575124 "Exp.Trial" "MASKSCREEN_START_Zeile_K_DEG_N_277" 174 "[[266,343,384,384]]" 174 "Zeile" "black" "degradated" "not underlined" "88" NA
749.543 1.884 15577945 "Exp.Trial" "MASKSCREEN_START_Juwel_K_DEG_U_426" 175 "[[415,492,384,384]]" 175 "Juwel" "black" "degradated" "underlined" "142" NA
754.461 1.26 15582863 "Exp.Trial" "MASKSCREEN_START_Pedal_E_LET_U_314" 176 "[[303,380,384,384]]" 176 "Pedal" "blue" "non-degradated" "underlined" "214" NA
757.123 1.13 15585525 "Exp.Trial" "MASKSCREEN_START_Blatt_K_DEG_N_228" 177 "[[217,294,384,384]]" 177 "Blatt" "black" "degradated" "not underlined" "115" NA
759.992 1.265 15588394 "Exp.Trial" "MASKSCREEN_START_Bande_E_LET_U_364" 178 "[[353,430,384,384]]" 178 "Bande" "blue" "non-degradated" "underlined" "209" NA
763.411 1.508 15591813 "Exp.Trial" "MASKSCREEN_START_Balte_E_LET_U_265" 179 "[[254,331,384,384]]" 179 "Balte" "blue" "non-degradated" "underlined" "239" NA
766.511 1.882 15594913 "Exp.Trial" "MASKSCREEN_START_Fjord_E_DEG_U_414" 180 "[[403,480,384,384]]" 180 "Fjord" "blue" "degradated" "underlined" "283" NA
770.042 1.745 15598444 "Exp.Trial" "MASKSCREEN_START_Spore_K_LET_U_339" 181 "[[328,405,384,384]]" 181 "Spore" "black" "non-degradated" "underlined" "42" NA
773.459 1.141 15601861 "Exp.Trial" "MASKSCREEN_START_Feder_E_LET_U_314" 182 "[[303,380,384,384]]" 182 "Feder" "blue" "non-degradated" "underlined" "231" NA
776.944 1.191 15605346 "Exp.Trial" "MASKSCREEN_START_Klaps_K_LET_U_401" 183 "[[390,467,384,384]]" 183 "Klaps" "black" "non-degradated" "underlined" "70" 0
783.942 1.878 15612344 "Exp.Trial" "MASKSCREEN_START_Drill_K_DEG_U_339" 184 "[[328,405,384,384]]" 184 "Drill" "black" "degradated" "underlined" "128" NA
788.177 1.538 15616579 "Exp.Trial" "MASKSCREEN_START_Anbau_E_DEG_N_302" 185 "[[291,368,384,384]]" 185 "Anbau" "blue" "degradated" "not underlined" "250" NA
791.225 1.387 15619627 "Exp.Trial" "MASKSCREEN_START_Knast_E_DEG_N_327" 186 "[[316,393,384,384]]" 186 "Knast" "blue" "degradated" "not underlined" "278" 0
797.676 0.983 15626078 "Exp.Trial" "MASKSCREEN_START_Kette_E_LET_N_252" 187 "[[241,318,384,384]]" 187 "Kette" "blue" "non-degradated" "not underlined" "199" 0
804.547 2.078 15632949 "Exp.Trial" "MASKSCREEN_START_Etage_E_DEG_N_228" 188 "[[217,294,384,384]]" 188 "Etage" "blue" "degradated" "not underlined" "260" 0
815.627 1.303 15644029 "Exp.Trial" "MASKSCREEN_START_Kokon_K_LET_U_228" 189 "[[217,294,384,384]]" 189 "Kokon" "black" "non-degradated" "underlined" "52" NA
818.521 1.226 15646923 "Exp.Trial" "MASKSCREEN_START_Depot_K_DEG_U_252" 190 "[[241,318,384,384]]" 190 "Depot" "black" "degradated" "underlined" "135" NA
821.315 1.302 15649717 "Exp.Trial" "MASKSCREEN_START_Paket_K_LET_U_352" 191 "[[341,418,384,384]]" 191 "Paket" "black" "non-degradated" "underlined" "77" NA
824.255 1.304 15652657 "Exp.Trial" "MASKSCREEN_START_Beute_E_LET_N_389" 192 "[[378,455,384,384]]" 192 "Beute" "blue" "non-degradated" "not underlined" "169" NA
827.848 1.256 15656250 "Exp.Trial" "MASKSCREEN_START_Ölung_K_LET_N_228" 193 "[[217,294,384,384]]" 193 "Ölung" "black" "non-degradated" "not underlined" "14" NA
831.348 1.418 15659750 "Exp.Trial" "MASKSCREEN_START_Gusto_E_LET_U_476" 194 "[[465,542,384,384]]" 194 "Gusto" "blue" "non-degradated" "underlined" "220" NA
834.644 1.78 15663046 "Exp.Trial" "MASKSCREEN_START_Sühne_K_LET_N_748" 195 "[[737,814,384,384]]" 195 "Sühne" "black" "non-degradated" "not underlined" "18" NA
838.004 1.46 15666406 "Exp.Trial" "MASKSCREEN_START_Votum_E_DEG_U_265" 196 "[[254,331,384,384]]" 196 "Votum" "blue" "degradated" "underlined" "317" 0
847.007 1.333 15675409 "Exp.Trial" "MASKSCREEN_START_Puder_E_LET_N_389" 197 "[[378,455,384,384]]" 197 "Puder" "blue" "non-degradated" "not underlined" "181" NA
850.101 1.491 15678503 "Exp.Trial" "MASKSCREEN_START_Madam_K_LET_N_252" 198 "[[241,318,384,384]]" 198 "Madam" "black" "non-degradated" "not underlined" "4" 0
858.164 1.49 15686566 "Exp.Trial" "MASKSCREEN_START_Mokka_E_DEG_U_302" 199 "[[291,368,384,384]]" 199 "Mokka" "blue" "degradated" "underlined" "312" NA
861.078 1.242 15689480 "Exp.Trial" "MASKSCREEN_START_Ratte_K_LET_U_339" 200 "[[328,405,384,384]]" 200 "Ratte" "black" "non-degradated" "underlined" "49" NA
865.227 1.472 15693629 "Exp.Trial" "MASKSCREEN_START_Lunge_K_DEG_N_476" 201 "[[465,542,384,384]]" 201 "Lunge" "black" "degradated" "not underlined" "81" NA
868.129 1.216 15696531 "Exp.Trial" "MASKSCREEN_START_Linse_E_LET_N_215" 202 "[[204,281,384,384]]" 202 "Linse" "blue" "non-degradated" "not underlined" "162" 0
876.418 1.137 15704820 "Exp.Trial" "MASKSCREEN_START_Kajak_E_LET_N_314" 203 "[[303,380,384,384]]" 203 "Kajak" "blue" "non-degradated" "not underlined" "190" 0
884.945 1.88 15713347 "Exp.Trial" "MASKSCREEN_START_Erlös_K_LET_U_476" 204 "[[465,542,384,384]]" 204 "Erlös" "black" "non-degradated" "underlined" "47" NA
888.409 1.259 15716811 "Exp.Trial" "MASKSCREEN_START_Pfahl_E_LET_N_240" 205 "[[229,306,384,384]]" 205 "Pfahl" "blue" "non-degradated" "not underlined" "189" NA
893.294 1.032 15721696 "Exp.Trial" "MASKSCREEN_START_Regal_K_LET_N_228" 206 "[[217,294,384,384]]" 206 "Regal" "black" "non-degradated" "not underlined" "10" NA
896.116 1.124 15724518 "Exp.Trial" "MASKSCREEN_START_Pilot_K_DEG_U_265" 207 "[[254,331,384,384]]" 207 "Pilot" "black" "degradated" "underlined" "132" NA
898.91 1.351 15727312 "Exp.Trial" "MASKSCREEN_START_Polio_K_DEG_N_364" 208 "[[353,430,384,384]]" 208 "Polio" "black" "degradated" "not underlined" "103" NA
903.749 1.962 15732151 "Exp.Trial" "MASKSCREEN_START_Leere_E_DEG_U_600" 209 "[[589,666,384,384]]" 209 "Leere" "blue" "degradated" "underlined" "290" NA
907.255 1.311 15735657 "Exp.Trial" "MASKSCREEN_START_Gebet_K_DEG_U_339" 210 "[[328,405,384,384]]" 210 "Gebet" "black" "degradated" "underlined" "156" NA
910.268 1.438 15738670 "Exp.Trial" "MASKSCREEN_START_Herde_E_LET_U_277" 211 "[[266,343,384,384]]" 211 "Herde" "blue" "non-degradated" "underlined" "204" NA
913.979 0.996 15742381 "Exp.Trial" "MASKSCREEN_START_Enkel_E_LET_U_277" 212 "[[266,343,384,384]]" 212 "Enkel" "blue" "non-degradated" "underlined" "205" 0
920.623 1.441 15749025 "Exp.Trial" "MASKSCREEN_START_Boxer_E_DEG_U_314" 213 "[[303,380,384,384]]" 213 "Boxer" "blue" "degradated" "underlined" "313" NA
923.458 1.274 15751860 "Exp.Trial" "MASKSCREEN_START_Vogel_E_LET_U_228" 214 "[[217,294,384,384]]" 214 "Vogel" "blue" "non-degradated" "underlined" "206" NA
926.412 1.326 15754814 "Exp.Trial" "MASKSCREEN_START_Lette_K_DEG_N_228" 215 "[[217,294,384,384]]" 215 "Lette" "black" "degradated" "not underlined" "96" NA
929.963 1.172 15758365 "Exp.Trial" "MASKSCREEN_START_Tulpe_E_DEG_N_500" 216 "[[489,566,384,384]]" 216 "Tulpe" "blue" "degradated" "not underlined" "245" NA
934.869 1.146 15763271 "Exp.Trial" "MASKSCREEN_START_Motiv_K_LET_N_290" 217 "[[279,356,384,384]]" 217 "Motiv" "black" "non-degradated" "not underlined" "13" NA
937.73 1.977 15766132 "Exp.Trial" "MASKSCREEN_START_Pulle_K_LET_U_339" 218 "[[328,405,384,384]]" 218 "Pulle" "black" "non-degradated" "underlined" "48" 0
947.109 1.674 15775511 "Exp.Trial" "MASKSCREEN_START_Zucht_K_DEG_N_314" 219 "[[303,380,384,384]]" 219 "Zucht" "black" "degradated" "not underlined" "111" NA
950.15 1.415 15778552 "Exp.Trial" "MASKSCREEN_START_Blitz_K_DEG_U_575" 220 "[[564,641,384,384]]" 220 "Blitz" "black" "degradated" "underlined" "121" NA
954.087 1.962 15782489 "Exp.Trial" "MASKSCREEN_START_Tapir_K_DEG_N_277" 221 "[[266,343,384,384]]" 221 "Tapir" "black" "degradated" "not underlined" "92" NA
957.731 1.415 15786133 "Exp.Trial" "MASKSCREEN_START_Teint_E_LET_U_302" 222 "[[291,368,384,384]]" 222 "Teint" "blue" "non-degradated" "underlined" "229" NA
961.382 1.858 15789784 "Exp.Trial" "MASKSCREEN_START_Büste_K_LET_N_302" 223 "[[291,368,384,384]]" 223 "Büste" "black" "non-degradated" "not underlined" "25" NA
966.474 1.249 15794876 "Exp.Trial" "MASKSCREEN_START_Sippe_E_LET_N_414" 224 "[[403,480,384,384]]" 224 "Sippe" "blue" "non-degradated" "not underlined" "188" NA
969.381 1.336 15797783 "Exp.Trial" "MASKSCREEN_START_Beize_K_LET_U_265" 225 "[[254,331,384,384]]" 225 "Beize" "black" "non-degradated" "underlined" "58" NA
972.335 1.323 15800737 "Exp.Trial" "MASKSCREEN_START_Flair_K_DEG_U_240" 226 "[[229,306,384,384]]" 226 "Flair" "black" "degradated" "underlined" "147" NA
975.993 1.159 15804395 "Exp.Trial" "MASKSCREEN_START_Runde_K_DEG_N_228" 227 "[[217,294,384,384]]" 227 "Runde" "black" "degradated" "not underlined" "108" NA
980.947 1.193 15809349 "Exp.Trial" "MASKSCREEN_START_Datum_K_DEG_N_228" 228 "[[217,294,384,384]]" 228 "Datum" "black" "degradated" "not underlined" "107" NA
983.706 1.736 15812108 "Exp.Trial" "MASKSCREEN_START_Beleg_E_LET_U_327" 229 "[[316,393,384,384]]" 229 "Beleg" "blue" "non-degradated" "underlined" "212" NA
987.132 1.527 15815534 "Exp.Trial" "MASKSCREEN_START_Möbel_E_LET_U_290" 230 "[[279,356,384,384]]" 230 "Möbel" "blue" "non-degradated" "underlined" "226" 0
994.441 1.092 15822843 "Exp.Trial" "MASKSCREEN_START_Lücke_K_LET_U_327" 231 "[[316,393,384,384]]" 231 "Lücke" "black" "non-degradated" "underlined" "80" NA
996.99 1.32 15825392 "Exp.Trial" "MASKSCREEN_START_Gicht_K_LET_N_401" 232 "[[390,467,384,384]]" 232 "Gicht" "black" "non-degradated" "not underlined" "33" NA
999.665 1.169 15828067 "Exp.Trial" "MASKSCREEN_START_Rispe_E_DEG_N_376" 233 "[[365,442,384,384]]" 233 "Rispe" "blue" "degradated" "not underlined" "275" 0
1008.506 1.604 15836908 "Exp.Trial" "MASKSCREEN_START_Moder_K_DEG_N_265" 234 "[[254,331,384,384]]" 234 "Moder" "black" "degradated" "not underlined" "97" NA
1013.844 1.364 15842246 "Exp.Trial" "MASKSCREEN_START_Säule_K_DEG_U_302" 235 "[[291,368,384,384]]" 235 "Säule" "black" "degradated" "underlined" "126" NA
1018.106 1.106 15846508 "Exp.Trial" "MASKSCREEN_START_Ärmel_K_LET_U_376" 236 "[[365,442,384,384]]" 236 "Ärmel" "black" "non-degradated" "underlined" "76" 0
1025.408 1.246 15853810 "Exp.Trial" "MASKSCREEN_START_Malve_E_DEG_N_339" 237 "[[328,405,384,384]]" 237 "Malve" "blue" "degradated" "not underlined" "241" NA
1028.282 1.39 15856684 "Exp.Trial" "MASKSCREEN_START_Gramm_E_DEG_N_538" 238 "[[527,604,384,384]]" 238 "Gramm" "blue" "degradated" "not underlined" "279" NA
1033.307 1.703 15861709 "Exp.Trial" "MASKSCREEN_START_Markt_K_LET_U_302" 239 "[[291,368,384,384]]" 239 "Markt" "black" "non-degradated" "underlined" "74" NA
1036.772 1.555 15865174 "Exp.Trial" "MASKSCREEN_START_Psalm_K_DEG_N_215" 240 "[[204,281,384,384]]" 240 "Psalm" "black" "degradated" "not underlined" "118" NA
1042.668 1.072 15871070 "Exp.Trial" "MASKSCREEN_START_Figur_E_LET_U_364" 241 "[[353,430,384,384]]" 241 "Figur" "blue" "non-degradated" "underlined" "232" NA
1045.608 1.321 15874010 "Exp.Trial" "MASKSCREEN_START_Äther_K_LET_N_451" 242 "[[440,517,384,384]]" 242 "Äther" "black" "non-degradated" "not underlined" "34" NA
1048.53 1.213 15876932 "Exp.Trial" "MASKSCREEN_START_Echse_E_DEG_U_228" 243 "[[217,294,384,384]]" 243 "Echse" "blue" "degradated" "underlined" "288" 0
1055.75 1.328 15884152 "Exp.Trial" "MASKSCREEN_START_Matte_K_DEG_U_240" 244 "[[229,306,384,384]]" 244 "Matte" "black" "degradated" "underlined" "143" NA
1058.745 1.661 15887147 "Exp.Trial" "MASKSCREEN_START_Hagel_E_LET_U_438" 245 "[[427,504,384,384]]" 245 "Hagel" "blue" "non-degradated" "underlined" "227" NA
1061.979 1.193 15890381 "Exp.Trial" "MASKSCREEN_START_Summe_K_DEG_U_265" 246 "[[254,331,384,384]]" 246 "Summe" "black" "degradated" "underlined" "123" NA
1064.732 1.417 15893134 "Exp.Trial" "MASKSCREEN_START_Polka_K_DEG_N_525" 247 "[[514,591,384,384]]" 247 "Polka" "black" "degradated" "not underlined" "102" NA
1067.86 1.542 15896262 "Exp.Trial" "MASKSCREEN_START_Sigma_E_LET_U_302" 248 "[[291,368,384,384]]" 248 "Sigma" "blue" "non-degradated" "underlined" "234" NA
1071.031 1.311 15899433 "Exp.Trial" "MASKSCREEN_START_Miene_K_DEG_U_265" 249 "[[254,331,384,384]]" 249 "Miene" "black" "degradated" "underlined" "155" 0
1078.428 1.862 15906830 "Exp.Trial" "MASKSCREEN_START_Ungar_K_DEG_N_327" 250 "[[316,393,384,384]]" 250 "Ungar" "black" "degradated" "not underlined" "95" 0
1086.858 1.424 15915260 "Exp.Trial" "MASKSCREEN_START_Thron_E_DEG_U_203" 251 "[[192,269,384,384]]" 251 "Thron" "blue" "degradated" "underlined" "307" NA
1089.969 1.116 15918371 "Exp.Trial" "MASKSCREEN_START_Karat_K_LET_N_339" 252 "[[328,405,384,384]]" 252 "Karat" "black" "non-degradated" "not underlined" "37" NA
1093.776 0.984 15922178 "Exp.Trial" "MASKSCREEN_START_Drama_E_DEG_U_290" 253 "[[279,356,384,384]]" 253 "Drama" "blue" "degradated" "underlined" "314" NA
1096.529 1.282 15924931 "Exp.Trial" "MASKSCREEN_START_Pirat_K_DEG_U_215" 254 "[[204,281,384,384]]" 254 "Pirat" "black" "degradated" "underlined" "133" NA
1099.578 1.381 15927980 "Exp.Trial" "MASKSCREEN_START_Porto_K_LET_U_290" 255 "[[279,356,384,384]]" 255 "Porto" "black" "non-degradated" "underlined" "59" NA
1104.455 1.021 15932857 "Exp.Trial" "MASKSCREEN_START_Luder_E_DEG_N_314" 256 "[[303,380,384,384]]" 256 "Luder" "blue" "degradated" "not underlined" "259" NA
1107.132 1.091 15935534 "Exp.Trial" "MASKSCREEN_START_Lachs_K_LET_N_352" 257 "[[341,418,384,384]]" 257 "Lachs" "black" "non-degradated" "not underlined" "24" 0
1113.511 1.67 15941913 "Exp.Trial" "MASKSCREEN_START_Hüter_K_LET_U_215" 258 "[[204,281,384,384]]" 258 "Hüter" "black" "non-degradated" "underlined" "66" NA
1116.585 0.965 15944987 "Exp.Trial" "MASKSCREEN_START_Jubel_K_LET_N_240" 259 "[[229,306,384,384]]" 259 "Jubel" "black" "non-degradated" "not underlined" "12" 0
1122.805 0.915 15951207 "Exp.Trial" "MASKSCREEN_START_Natur_E_DEG_N_265" 260 "[[254,331,384,384]]" 260 "Natur" "blue" "degradated" "not underlined" "246" NA
1125.419 1.207 15953821 "Exp.Trial" "MASKSCREEN_START_Bogen_E_LET_U_401" 261 "[[390,467,384,384]]" 261 "Bogen" "blue" "non-degradated" "underlined" "221" NA
1128.261 1.01 15956663 "Exp.Trial" "MASKSCREEN_START_Zecke_E_LET_N_240" 262 "[[229,306,384,384]]" 262 "Zecke" "blue" "non-degradated" "not underlined" "170" NA
1132.311 1.103 15960713 "Exp.Trial" "MASKSCREEN_START_Mensa_K_DEG_N_277" 263 "[[266,343,384,384]]" 263 "Mensa" "black" "degradated" "not underlined" "83" NA
1134.972 1.071 15963374 "Exp.Trial" "MASKSCREEN_START_Seide_K_DEG_U_339" 264 "[[328,405,384,384]]" 264 "Seide" "black" "degradated" "underlined" "152" NA
1137.441 2.003 15965843 "Exp.Trial" "MASKSCREEN_START_Quart_K_DEG_U_414" 265 "[[403,480,384,384]]" 265 "Quart" "black" "degradated" "underlined" "146" NA
1142.035 1.292 15970437 "Exp.Trial" "MASKSCREEN_START_Party_E_LET_N_376" 266 "[[365,442,384,384]]" 266 "Party" "blue" "non-degradated" "not underlined" "184" NA
1145.64 1.084 15974042 "Exp.Trial" "MASKSCREEN_START_Probe_K_DEG_N_240" 267 "[[229,306,384,384]]" 267 "Probe" "black" "degradated" "not underlined" "117" NA
1148.455 1.191 15976857 "Exp.Trial" "MASKSCREEN_START_Nylon_K_DEG_U_228" 268 "[[217,294,384,384]]" 268 "Nylon" "black" "degradated" "underlined" "139" NA
1152.232 1.101 15980634 "Exp.Trial" "MASKSCREEN_START_Datei_K_DEG_U_277" 269 "[[266,343,384,384]]" 269 "Datei" "black" "degradated" "underlined" "140" NA
1154.96 1.036 15983362 "Exp.Trial" "MASKSCREEN_START_Mappe_K_LET_N_252" 270 "[[241,318,384,384]]" 270 "Mappe" "black" "non-degradated" "not underlined" "32" NA
1158.179 0.965 15986581 "Exp.Trial" "MASKSCREEN_START_Fülle_E_DEG_N_290" 271 "[[279,356,384,384]]" 271 "Fülle" "blue" "degradated" "not underlined" "271" NA
1160.835 1.514 15989237 "Exp.Trial" "MASKSCREEN_START_Kerze_E_LET_N_277" 272 "[[266,343,384,384]]" 272 "Kerze" "blue" "non-degradated" "not underlined" "165" 0
1170.567 2.004 15998969 "Exp.Trial" "MASKSCREEN_START_Raupe_K_DEG_U_339" 273 "[[328,405,384,384]]" 273 "Raupe" "black" "degradated" "underlined" "153" NA
1174.264 1.473 16002666 "Exp.Trial" "MASKSCREEN_START_Phase_K_LET_U_228" 274 "[[217,294,384,384]]" 274 "Phase" "black" "non-degradated" "underlined" "69" NA
1178.838 1.388 16007240 "Exp.Trial" "MASKSCREEN_START_Biest_K_DEG_N_314" 275 "[[303,380,384,384]]" 275 "Biest" "black" "degradated" "not underlined" "114" NA
1181.686 1.296 16010088 "Exp.Trial" "MASKSCREEN_START_Major_E_LET_N_252" 276 "[[241,318,384,384]]" 276 "Major" "blue" "non-degradated" "not underlined" "195" NA
1184.52 1.55 16012922 "Exp.Trial" "MASKSCREEN_START_Hocke_E_DEG_U_265" 277 "[[254,331,384,384]]" 277 "Hocke" "blue" "degradated" "underlined" "308" 0
1191.537 1.239 16019939 "Exp.Trial" "MASKSCREEN_START_Kater_E_DEG_N_277" 278 "[[266,343,384,384]]" 278 "Kater" "blue" "degradated" "not underlined" "252" NA
1195.891 1.396 16024293 "Exp.Trial" "MASKSCREEN_START_Spreu_E_LET_N_364" 279 "[[353,430,384,384]]" 279 "Spreu" "blue" "non-degradated" "not underlined" "161" NA
1198.707 1.27 16027109 "Exp.Trial" "MASKSCREEN_START_Block_K_LET_U_414" 280 "[[403,480,384,384]]" 280 "Block" "black" "non-degradated" "underlined" "60" NA
1202.835 1.035 16031237 "Exp.Trial" "MASKSCREEN_START_Slawe_E_LET_N_277" 281 "[[266,343,384,384]]" 281 "Slawe" "blue" "non-degradated" "not underlined" "171" NA
1206.991 1.666 16035393 "Exp.Trial" "MASKSCREEN_START_Dogma_K_LET_U_352" 282 "[[341,418,384,384]]" 282 "Dogma" "black" "non-degradated" "underlined" "67" NA
1210.357 1.712 16038759 "Exp.Trial" "MASKSCREEN_START_Fehde_E_LET_N_252" 283 "[[241,318,384,384]]" 283 "Fehde" "blue" "non-degradated" "not underlined" "176" NA
1214.208 1.895 16042610 "Exp.Trial" "MASKSCREEN_START_Griff_E_LET_U_364" 284 "[[353,430,384,384]]" 284 "Griff" "blue" "non-degradated" "underlined" "225" NA
1217.95 1.263 16046352 "Exp.Trial" "MASKSCREEN_START_Bitte_E_LET_U_252" 285 "[[241,318,384,384]]" 285 "Bitte" "blue" "non-degradated" "underlined" "235" NA
1220.851 1.452 16049253 "Exp.Trial" "MASKSCREEN_START_Lehne_E_LET_U_401" 286 "[[390,467,384,384]]" 286 "Lehne" "blue" "non-degradated" "underlined" "224" NA
1225.273 1.232 16053675 "Exp.Trial" "MASKSCREEN_START_Nugat_K_LET_U_265" 287 "[[254,331,384,384]]" 287 "Nugat" "black" "non-degradated" "underlined" "55" NA
1228.141 1.324 16056543 "Exp.Trial" "MASKSCREEN_START_Logik_K_DEG_U_389" 288 "[[378,455,384,384]]" 288 "Logik" "black" "degradated" "underlined" "144" NA
1231.705 1.297 16060107 "Exp.Trial" "MASKSCREEN_START_Fötus_E_DEG_U_352" 289 "[[341,418,384,384]]" 289 "Fötus" "blue" "degradated" "underlined" "289" NA
1234.573 1.8 16062975 "Exp.Trial" "MASKSCREEN_START_Axiom_K_LET_N_364" 290 "[[353,430,384,384]]" 290 "Axiom" "black" "non-degradated" "not underlined" "27" NA
1237.719 1.648 16066121 "Exp.Trial" "MASKSCREEN_START_Wange_E_DEG_N_401" 291 "[[390,467,384,384]]" 291 "Wange" "blue" "degradated" "not underlined" "256" NA
1240.826 1.396 16069228 "Exp.Trial" "MASKSCREEN_START_Plane_E_DEG_N_414" 292 "[[403,480,384,384]]" 292 "Plane" "blue" "degradated" "not underlined" "277" NA
1243.806 1.15 16072208 "Exp.Trial" "MASKSCREEN_START_Zeche_K_DEG_N_277" 293 "[[266,343,384,384]]" 293 "Zeche" "black" "degradated" "not underlined" "82" NA
1246.561 1.175 16074963 "Exp.Trial" "MASKSCREEN_START_Sünde_E_LET_U_265" 294 "[[254,331,384,384]]" 294 "Sünde" "blue" "non-degradated" "underlined" "207" NA
1249.15 1.613 16077552 "Exp.Trial" "MASKSCREEN_START_Basar_E_LET_U_228" 295 "[[217,294,384,384]]" 295 "Basar" "blue" "non-degradated" "underlined" "203" NA
1252.376 1.342 16080778 "Exp.Trial" "MASKSCREEN_START_Abgas_K_DEG_U_252" 296 "[[241,318,384,384]]" 296 "Abgas" "black" "degradated" "underlined" "138" NA
1255.363 1.243 16083765 "Exp.Trial" "MASKSCREEN_START_Wunde_E_LET_U_290" 297 "[[279,356,384,384]]" 297 "Wunde" "blue" "non-degradated" "underlined" "202" NA
1257.992 1.981 16086394 "Exp.Trial" "MASKSCREEN_START_Liste_K_DEG_N_426" 298 "[[415,492,384,384]]" 298 "Liste" "black" "degradated" "not underlined" "99" 0
1267.784 1.505 16096186 "Exp.Trial" "MASKSCREEN_START_Kunde_K_LET_N_228" 299 "[[217,294,384,384]]" 299 "Kunde" "black" "non-degradated" "not underlined" "20" NA
1270.757 1.724 16099159 "Exp.Trial" "MASKSCREEN_START_Atoll_K_DEG_N_513" 300 "[[502,579,384,384]]" 300 "Atoll" "black" "degradated" "not underlined" "98" NA
1274.661 1.36 16103063 "Exp.Trial" "MASKSCREEN_START_Onkel_K_LET_N_228" 301 "[[217,294,384,384]]" 301 "Onkel" "black" "non-degradated" "not underlined" "35" NA
1277.443 1.677 16105845 "Exp.Trial" "MASKSCREEN_START_Beuge_K_LET_U_426" 302 "[[415,492,384,384]]" 302 "Beuge" "black" "non-degradated" "underlined" "73" NA
1282.363 2.357 16110765 "Exp.Trial" "MASKSCREEN_START_Kiste_E_LET_N_401" 303 "[[390,467,384,384]]" 303 "Kiste" "blue" "non-degradated" "not underlined" "187" 0
1291.457 1.833 16119859 "Exp.Trial" "MASKSCREEN_START_Sehne_K_LET_N_376" 304 "[[365,442,384,384]]" 304 "Sehne" "black" "non-degradated" "not underlined" "26" NA
1294.854 1.877 16123256 "Exp.Trial" "MASKSCREEN_START_Regie_K_DEG_N_327" 305 "[[316,393,384,384]]" 305 "Regie" "black" "degradated" "not underlined" "116" NA
1298.312 1.354 16126714 "Exp.Trial" "MASKSCREEN_START_Müsli_E_LET_U_426" 306 "[[415,492,384,384]]" 306 "Müsli" "blue" "non-degradated" "underlined" "210" 0
1305.004 1.198 16133406 "Exp.Trial" "MASKSCREEN_START_Yacht_K_LET_N_215" 307 "[[204,281,384,384]]" 307 "Yacht" "black" "non-degradated" "not underlined" "28" NA
1307.586 1.217 16135988 "Exp.Trial" "MASKSCREEN_START_Beule_E_DEG_N_327" 308 "[[316,393,384,384]]" 308 "Beule" "blue" "degradated" "not underlined" "266" NA
1310.221 1.213 16138623 "Exp.Trial" "MASKSCREEN_START_Geist_K_DEG_U_277" 309 "[[266,343,384,384]]" 309 "Geist" "black" "degradated" "underlined" "134" NA
1312.831 1.967 16141233 "Exp.Trial" "MASKSCREEN_START_Karte_E_DEG_N_327" 310 "[[316,393,384,384]]" 310 "Karte" "blue" "degradated" "not underlined" "254" 0
1320.784 1.896 16149186 "Exp.Trial" "MASKSCREEN_START_Daune_K_DEG_N_327" 311 "[[316,393,384,384]]" 311 "Daune" "black" "degradated" "not underlined" "110" NA
1324.368 1.26 16152770 "Exp.Trial" "MASKSCREEN_START_Trupp_E_DEG_N_240" 312 "[[229,306,384,384]]" 312 "Trupp" "blue" "degradated" "not underlined" "262" NA
1327.295 1.315 16155697 "Exp.Trial" "MASKSCREEN_START_Hecke_E_LET_U_228" 313 "[[217,294,384,384]]" 313 "Hecke" "blue" "non-degradated" "underlined" "230" NA
1331.121 1.238 16159523 "Exp.Trial" "MASKSCREEN_START_Messe_E_DEG_U_240" 314 "[[229,306,384,384]]" 314 "Messe" "blue" "degradated" "underlined" "310" NA
1333.959 1.822 16162361 "Exp.Trial" "MASKSCREEN_START_Kongo_K_LET_N_228" 315 "[[217,294,384,384]]" 315 "Kongo" "black" "non-degradated" "not underlined" "15" NA
1337.306 1.233 16165708 "Exp.Trial" "MASKSCREEN_START_Optik_E_DEG_U_352" 316 "[[341,418,384,384]]" 316 "Optik" "blue" "degradated" "underlined" "301" NA
1339.934 1.569 16168336 "Exp.Trial" "MASKSCREEN_START_Quint_E_DEG_N_513" 317 "[[502,579,384,384]]" 317 "Quint" "blue" "degradated" "not underlined" "265" NA
1343.135 1.465 16171537 "Exp.Trial" "MASKSCREEN_START_Weber_K_LET_N_339" 318 "[[328,405,384,384]]" 318 "Weber" "black" "non-degradated" "not underlined" "38" 0
1350.556 1.306 16178958 "Exp.Trial" "MASKSCREEN_START_Trott_E_LET_N_339" 319 "[[328,405,384,384]]" 319 "Trott" "blue" "non-degradated" "not underlined" "194" NA
1354.128 1.282 16182530 "Exp.Trial" "MASKSCREEN_START_Elite_E_LET_U_290" 320 "[[279,356,384,384]]" 320 "Elite" "blue" "non-degradated" "underlined" "233" NA
