"onset" "duration" "sample" "trial_type" "event_nr" "aoi" "trial" "target_word" "color" "mask" "underlining" "sentenceNr" "response"
0 2.614 14828402 "Exp.Trial" 1 "[[476,531,\"NA\",\"NA\"]]" 1 "Wanst" "blue" "degradated" "underlined" "297" NA
4.492 2.243 14832894 "Exp.Trial" 2 "[[252,307,\"NA\",\"NA\"]]" 2 "Motte" "black" "non-degradated" "underlined" "63" NA
8.39 2.678 14836792 "Exp.Trial" 3 "[[240,295,\"NA\",\"NA\"]]" 3 "Kutte" "black" "non-degradated" "not underlined" "9" NA
12.724 2.257 14841126 "Exp.Trial" 4 "[[265,320,\"NA\",\"NA\"]]" 4 "Nonne" "blue" "non-degradated" "not underlined" "198" NA
16.647 2.823 14845049 "Exp.Trial" 5 "[[203,258,\"NA\",\"NA\"]]" 5 "Hafer" "blue" "non-degradated" "not underlined" "177" NA
21.116 2.056 14849518 "Exp.Trial" 6 "[[265,320,\"NA\",\"NA\"]]" 6 "Dämon" "blue" "non-degradated" "not underlined" "192" NA
24.667 2.209 14853069 "Exp.Trial" 7 "[[252,307,\"NA\",\"NA\"]]" 7 "Druck" "black" "non-degradated" "underlined" "75" NA
28.304 2.487 14856706 "Exp.Trial" 8 "[[302,357,\"NA\",\"NA\"]]" 8 "Feile" "blue" "non-degradated" "not underlined" "185" NA
33.484 1.598 14861886 "Exp.Trial" 9 "[[290,345,\"NA\",\"NA\"]]" 9 "Taube" "black" "non-degradated" "underlined" "41" NA
36.714 2.195 14865116 "Exp.Trial" 10 "[[290,345,\"NA\",\"NA\"]]" 10 "Armee" "blue" "degradated" "underlined" "284" NA
40.538 2.405 14868940 "Exp.Trial" 11 "[[389,444,\"NA\",\"NA\"]]" 11 "Waffe" "blue" "non-degradated" "not underlined" "174" NA
44.534 2.094 14872936 "Exp.Trial" 12 "[[352,407,\"NA\",\"NA\"]]" 12 "Stola" "black" "degradated" "underlined" "124" NA
48.047 2.314 14876449 "Exp.Trial" 13 "[[525,580,\"NA\",\"NA\"]]" 13 "Heber" "blue" "degradated" "underlined" "292" NA
51.989 1.452 14880391 "Exp.Trial" 14 "[[265,320,\"NA\",\"NA\"]]" 14 "Tante" "blue" "non-degradated" "underlined" "215" NA
56.902 1.949 14885304 "Exp.Trial" 15 "[[339,394,\"NA\",\"NA\"]]" 15 "Organ" "blue" "degradated" "underlined" "305" NA
60.44 1.858 14888842 "Exp.Trial" 16 "[[538,593,\"NA\",\"NA\"]]" 16 "Eimer" "blue" "non-degradated" "underlined" "216" NA
63.934 1.94 14892336 "Exp.Trial" 17 "[[252,307,\"NA\",\"NA\"]]" 17 "Hülle" "blue" "degradated" "underlined" "294" NA
67.291 1.582 14895693 "Exp.Trial" 18 "[[327,382,\"NA\",\"NA\"]]" 18 "Laich" "black" "degradated" "not underlined" "113" NA
70.404 1.344 14898806 "Exp.Trial" 19 "[[376,431,\"NA\",\"NA\"]]" 19 "Wolle" "black" "degradated" "underlined" "159" 0
77.753 1.35 14906155 "Exp.Trial" 20 "[[240,295,\"NA\",\"NA\"]]" 20 "Stube" "blue" "degradated" "not underlined" "273" NA
80.72 1.872 14909122 "Exp.Trial" 21 "[[314,369,\"NA\",\"NA\"]]" 21 "Villa" "blue" "non-degradated" "underlined" "240" NA
84.218 1.615 14912620 "Exp.Trial" 22 "[[228,283,\"NA\",\"NA\"]]" 22 "Lager" "black" "degradated" "underlined" "145" 0
92.875 1.223 14921277 "Exp.Trial" 23 "[[215,270,\"NA\",\"NA\"]]" 23 "Liege" "blue" "degradated" "not underlined" "280" NA
95.748 1.901 14924150 "Exp.Trial" 24 "[[240,295,\"NA\",\"NA\"]]" 24 "Torte" "black" "degradated" "underlined" "149" NA
99.917 1.432 14928319 "Exp.Trial" 25 "[[228,283,\"NA\",\"NA\"]]" 25 "Übung" "black" "degradated" "not underlined" "100" NA
102.971 1.757 14931373 "Exp.Trial" 26 "[[290,345,\"NA\",\"NA\"]]" 26 "Seife" "black" "non-degradated" "not underlined" "6" NA
106.325 2.388 14934727 "Exp.Trial" 27 "[[339,394,\"NA\",\"NA\"]]" 27 "Buche" "black" "degradated" "underlined" "122" 0
116.328 1.474 14944730 "Exp.Trial" 28 "[[252,307,\"NA\",\"NA\"]]" 28 "Abend" "black" "non-degradated" "not underlined" "7" 0
124.805 1.56 14953207 "Exp.Trial" 29 "[[302,357,\"NA\",\"NA\"]]" 29 "Delta" "black" "degradated" "underlined" "131" NA
128.03 2.46 14956432 "Exp.Trial" 30 "[[339,394,\"NA\",\"NA\"]]" 30 "Fauna" "black" "non-degradated" "underlined" "68" NA
132.114 1.809 14960516 "Exp.Trial" 31 "[[228,283,\"NA\",\"NA\"]]" 31 "Krebs" "black" "non-degradated" "not underlined" "29" 0
139.484 1.522 14967886 "Exp.Trial" 32 "[[314,369,\"NA\",\"NA\"]]" 32 "Gecko" "blue" "degradated" "not underlined" "268" NA
142.621 2.284 14971023 "Exp.Trial" 33 "[[277,332,\"NA\",\"NA\"]]" 33 "Chrom" "blue" "non-degradated" "underlined" "213" 0
156.403 2.764 14984805 "Exp.Trial" 34 "[[265,320,\"NA\",\"NA\"]]" 34 "Prinz" "blue" "non-degradated" "not underlined" "166" NA
160.786 2.251 14989188 "Exp.Trial" 35 "[[228,283,\"NA\",\"NA\"]]" 35 "Laken" "blue" "degradated" "underlined" "298" NA
164.674 2.234 14993076 "Exp.Trial" 36 "[[265,320,\"NA\",\"NA\"]]" 36 "Zeder" "blue" "degradated" "underlined" "304" NA
168.497 2.155 14996899 "Exp.Trial" 37 "[[376,431,\"NA\",\"NA\"]]" 37 "Eifer" "black" "degradated" "not underlined" "84" NA
172.268 2.132 15000670 "Exp.Trial" 38 "[[414,469,\"NA\",\"NA\"]]" 38 "Stamm" "blue" "degradated" "not underlined" "274" NA
177.333 1.916 15005735 "Exp.Trial" 39 "[[376,431,\"NA\",\"NA\"]]" 39 "Werft" "black" "degradated" "not underlined" "87" NA
180.85 2.796 15009252 "Exp.Trial" 40 "[[252,307,\"NA\",\"NA\"]]" 40 "Zwerg" "black" "degradated" "not underlined" "93" NA
185.299 2.758 15013701 "Exp.Trial" 41 "[[376,431,\"NA\",\"NA\"]]" 41 "Würde" "black" "degradated" "not underlined" "104" NA
189.7 1.245 15018102 "Exp.Trial" 42 "[[290,345,\"NA\",\"NA\"]]" 42 "Anker" "black" "non-degradated" "not underlined" "22" NA
192.548 1.637 15020950 "Exp.Trial" 43 "[[265,320,\"NA\",\"NA\"]]" 43 "Panda" "black" "non-degradated" "not underlined" "31" 0
201.138 1.33 15029540 "Exp.Trial" 44 "[[240,295,\"NA\",\"NA\"]]" 44 "Feger" "blue" "degradated" "underlined" "285" NA
205.168 2.043 15033570 "Exp.Trial" 45 "[[525,580,\"NA\",\"NA\"]]" 45 "Kakao" "blue" "non-degradated" "underlined" "208" NA
208.784 1.588 15037186 "Exp.Trial" 46 "[[228,283,\"NA\",\"NA\"]]" 46 "Mango" "blue" "degradated" "underlined" "286" 0
216.479 2.058 15044881 "Exp.Trial" 47 "[[277,332,\"NA\",\"NA\"]]" 47 "Kehle" "blue" "degradated" "underlined" "319" NA
220.196 1.218 15048598 "Exp.Trial" 48 "[[302,357,\"NA\",\"NA\"]]" 48 "Rache" "blue" "non-degradated" "underlined" "223" NA
223.064 5.03 15051466 "Exp.Trial" 49 "[[252,307,\"NA\",\"NA\"]]" 49 "Sense" "black" "non-degradated" "underlined" "44" NA
229.741 1.714 15058143 "Exp.Trial" 50 "[[215,270,\"NA\",\"NA\"]]" 50 "Tarif" "black" "degradated" "not underlined" "90" NA
233.088 1.974 15061490 "Exp.Trial" 51 "[[302,357,\"NA\",\"NA\"]]" 51 "China" "blue" "degradated" "not underlined" "257" NA
236.659 1.435 15065061 "Exp.Trial" 52 "[[228,283,\"NA\",\"NA\"]]" 52 "Stern" "blue" "non-degradated" "underlined" "237" NA
240.926 1.778 15069328 "Exp.Trial" 53 "[[252,307,\"NA\",\"NA\"]]" 53 "Zicke" "blue" "non-degradated" "not underlined" "183" NA
244.313 1.468 15072715 "Exp.Trial" 54 "[[327,382,\"NA\",\"NA\"]]" 54 "Kelch" "black" "non-degradated" "not underlined" "8" NA
247.439 1.907 15075841 "Exp.Trial" 55 "[[265,320,\"NA\",\"NA\"]]" 55 "Manko" "blue" "non-degradated" "not underlined" "173" NA
250.939 1.482 15079341 "Exp.Trial" 56 "[[228,283,\"NA\",\"NA\"]]" 56 "Genre" "blue" "degradated" "not underlined" "249" 0
259.908 1.368 15088310 "Exp.Trial" 57 "[[252,307,\"NA\",\"NA\"]]" 57 "Klotz" "black" "degradated" "underlined" "136" NA
262.879 1.541 15091281 "Exp.Trial" 58 "[[352,407,\"NA\",\"NA\"]]" 58 "Zwang" "blue" "degradated" "not underlined" "272" NA
266.033 1.789 15094435 "Exp.Trial" 59 "[[426,481,\"NA\",\"NA\"]]" 59 "Nudel" "black" "degradated" "underlined" "154" NA
269.498 2.052 15097900 "Exp.Trial" 60 "[[228,283,\"NA\",\"NA\"]]" 60 "Sturz" "blue" "non-degradated" "underlined" "219" NA
274.092 1.521 15102494 "Exp.Trial" 61 "[[252,307,\"NA\",\"NA\"]]" 61 "Klima" "black" "degradated" "underlined" "141" NA
277.331 1.624 15105733 "Exp.Trial" 62 "[[389,444,\"NA\",\"NA\"]]" 62 "Bauer" "blue" "non-degradated" "not underlined" "196" NA
281.574 1.535 15109976 "Exp.Trial" 63 "[[240,295,\"NA\",\"NA\"]]" 63 "Amsel" "black" "degradated" "underlined" "137" NA
284.687 1.731 15113089 "Exp.Trial" 64 "[[252,307,\"NA\",\"NA\"]]" 64 "Tunke" "black" "non-degradated" "not underlined" "30" NA
287.833 2.327 15116235 "Exp.Trial" 65 "[[550,605,\"NA\",\"NA\"]]" 65 "Quast" "black" "non-degradated" "underlined" "61" NA
291.776 2.443 15120178 "Exp.Trial" 66 "[[352,407,\"NA\",\"NA\"]]" 66 "Mimik" "blue" "degradated" "underlined" "293" 0
300.949 1.666 15129351 "Exp.Trial" 67 "[[228,283,\"NA\",\"NA\"]]" 67 "Masse" "black" "non-degradated" "underlined" "50" NA
305.491 2.014 15133893 "Exp.Trial" 68 "[[352,407,\"NA\",\"NA\"]]" 68 "Witwe" "black" "non-degradated" "underlined" "64" 0
315.429 1.667 15143831 "Exp.Trial" 69 "[[339,394,\"NA\",\"NA\"]]" 69 "Insel" "black" "non-degradated" "not underlined" "2" NA
320.573 1.983 15148975 "Exp.Trial" 70 "[[252,307,\"NA\",\"NA\"]]" 70 "Ruder" "blue" "non-degradated" "underlined" "228" NA
324.163 1.846 15152565 "Exp.Trial" 71 "[[401,456,\"NA\",\"NA\"]]" 71 "Mähre" "blue" "non-degradated" "not underlined" "167" NA
327.364 1.399 15155766 "Exp.Trial" 72 "[[339,394,\"NA\",\"NA\"]]" 72 "Falle" "blue" "degradated" "not underlined" "244" NA
330.331 1.246 15158733 "Exp.Trial" 73 "[[314,369,\"NA\",\"NA\"]]" 73 "Ikone" "blue" "degradated" "not underlined" "267" NA
333.126 1.363 15161528 "Exp.Trial" 74 "[[277,332,\"NA\",\"NA\"]]" 74 "Dunst" "black" "degradated" "underlined" "150" NA
337.042 2.067 15165444 "Exp.Trial" 75 "[[339,394,\"NA\",\"NA\"]]" 75 "Opfer" "black" "degradated" "underlined" "157" NA
340.753 1.884 15169155 "Exp.Trial" 76 "[[488,543,\"NA\",\"NA\"]]" 76 "Kreml" "blue" "non-degradated" "underlined" "222" NA
344.045 1.149 15172447 "Exp.Trial" 77 "[[376,431,\"NA\",\"NA\"]]" 77 "These" "black" "non-degradated" "underlined" "53" NA
348.194 1.444 15176596 "Exp.Trial" 78 "[[277,332,\"NA\",\"NA\"]]" 78 "Gerät" "black" "degradated" "not underlined" "119" NA
351.262 1.845 15179664 "Exp.Trial" 79 "[[500,555,\"NA\",\"NA\"]]" 79 "Lauch" "blue" "non-degradated" "not underlined" "197" NA
354.74 1.539 15183142 "Exp.Trial" 80 "[[290,345,\"NA\",\"NA\"]]" 80 "Bürde" "blue" "non-degradated" "underlined" "238" NA
357.92 1.644 15186322 "Exp.Trial" 81 "[[426,481,\"NA\",\"NA\"]]" 81 "Troll" "black" "non-degradated" "underlined" "57" 0
365.978 1.559 15194380 "Exp.Trial" 82 "[[426,481,\"NA\",\"NA\"]]" 82 "Pfund" "blue" "non-degradated" "not underlined" "164" NA
369.131 1.857 15197533 "Exp.Trial" 83 "[[401,456,\"NA\",\"NA\"]]" 83 "Agent" "blue" "degradated" "underlined" "291" NA
372.609 1.825 15201011 "Exp.Trial" 84 "[[488,543,\"NA\",\"NA\"]]" 84 "Bühne" "black" "degradated" "not underlined" "101" NA
375.823 1.356 15204225 "Exp.Trial" 85 "[[290,345,\"NA\",\"NA\"]]" 85 "Raser" "black" "non-degradated" "not underlined" "3" NA
378.751 1.25 15207153 "Exp.Trial" 86 "[[414,469,\"NA\",\"NA\"]]" 86 "Decke" "black" "degradated" "not underlined" "86" NA
381.439 1.772 15209841 "Exp.Trial" 87 "[[240,295,\"NA\",\"NA\"]]" 87 "Lauge" "blue" "non-degradated" "underlined" "236" NA
385.808 2.195 15214210 "Exp.Trial" 88 "[[240,295,\"NA\",\"NA\"]]" 88 "Zinke" "blue" "non-degradated" "not underlined" "168" 0
395.593 1.974 15223995 "Exp.Trial" 89 "[[252,307,\"NA\",\"NA\"]]" 89 "Motor" "black" "degradated" "not underlined" "89" NA
399.156 1.332 15227558 "Exp.Trial" 90 "[[277,332,\"NA\",\"NA\"]]" 90 "Salbe" "blue" "degradated" "not underlined" "247" NA
402.123 1.316 15230525 "Exp.Trial" 91 "[[240,295,\"NA\",\"NA\"]]" 91 "Plage" "black" "non-degradated" "underlined" "54" NA
406.439 1.72 15234841 "Exp.Trial" 92 "[[215,270,\"NA\",\"NA\"]]" 92 "Bowle" "blue" "degradated" "not underlined" "269" NA
409.903 1.982 15238305 "Exp.Trial" 93 "[[228,283,\"NA\",\"NA\"]]" 93 "Orbit" "blue" "degradated" "underlined" "287" NA
413.641 1.441 15242043 "Exp.Trial" 94 "[[277,332,\"NA\",\"NA\"]]" 94 "Kuhle" "black" "non-degradated" "underlined" "45" NA
416.688 1.323 15245090 "Exp.Trial" 95 "[[290,345,\"NA\",\"NA\"]]" 95 "Tabak" "blue" "degradated" "underlined" "316" 0
423.372 1.409 15251774 "Exp.Trial" 96 "[[240,295,\"NA\",\"NA\"]]" 96 "Szene" "black" "non-degradated" "not underlined" "23" NA
426.388 1.193 15254790 "Exp.Trial" 97 "[[252,307,\"NA\",\"NA\"]]" 97 "Knabe" "black" "non-degradated" "not underlined" "1" NA
429.168 1.17 15257570 "Exp.Trial" 98 "[[376,431,\"NA\",\"NA\"]]" 98 "Anruf" "black" "degradated" "not underlined" "91" NA
431.903 1.154 15260305 "Exp.Trial" 99 "[[228,283,\"NA\",\"NA\"]]" 99 "Pferd" "blue" "degradated" "underlined" "282" NA
434.718 1.441 15263120 "Exp.Trial" 100 "[[265,320,\"NA\",\"NA\"]]" 100 "Dekan" "black" "non-degradated" "not underlined" "11" NA
437.823 1.877 15266225 "Exp.Trial" 101 "[[327,382,\"NA\",\"NA\"]]" 101 "Sorte" "blue" "degradated" "underlined" "299" NA
441.136 2.282 15269538 "Exp.Trial" 102 "[[314,369,\"NA\",\"NA\"]]" 102 "Dicke" "black" "non-degradated" "underlined" "43" NA
445.105 1.121 15273507 "Exp.Trial" 103 "[[364,419,\"NA\",\"NA\"]]" 103 "Viper" "black" "non-degradated" "not underlined" "19" NA
448.824 1.571 15277226 "Exp.Trial" 104 "[[314,369,\"NA\",\"NA\"]]" 104 "Kugel" "blue" "non-degradated" "not underlined" "186" NA
451.952 1.378 15280354 "Exp.Trial" 105 "[[228,283,\"NA\",\"NA\"]]" 105 "Ritze" "blue" "degradated" "underlined" "318" NA
454.966 1.133 15283368 "Exp.Trial" 106 "[[376,431,\"NA\",\"NA\"]]" 106 "Nagel" "black" "non-degradated" "underlined" "65" NA
458.967 1.355 15287369 "Exp.Trial" 107 "[[426,481,\"NA\",\"NA\"]]" 107 "Buchs" "black" "non-degradated" "not underlined" "5" NA
461.954 1.313 15290356 "Exp.Trial" 108 "[[302,357,\"NA\",\"NA\"]]" 108 "Kolik" "blue" "degradated" "not underlined" "253" NA
465.851 1.292 15294253 "Exp.Trial" 109 "[[228,283,\"NA\",\"NA\"]]" 109 "Alter" "blue" "degradated" "underlined" "296" NA
470.67 1.411 15299072 "Exp.Trial" 110 "[[228,283,\"NA\",\"NA\"]]" 110 "Wuchs" "black" "degradated" "not underlined" "85" 0
478.298 1.238 15306700 "Exp.Trial" 111 "[[314,369,\"NA\",\"NA\"]]" 111 "Rinde" "black" "degradated" "underlined" "148" 0
485.214 1.505 15313616 "Exp.Trial" 112 "[[451,506,\"NA\",\"NA\"]]" 112 "Ziege" "black" "non-degradated" "underlined" "51" NA
488.342 1.509 15316744 "Exp.Trial" 113 "[[228,283,\"NA\",\"NA\"]]" 113 "Ahorn" "blue" "non-degradated" "not underlined" "193" NA
492.822 1.35 15321224 "Exp.Trial" 114 "[[513,568,\"NA\",\"NA\"]]" 114 "Modul" "black" "degradated" "underlined" "127" NA
495.749 1.436 15324151 "Exp.Trial" 115 "[[215,270,\"NA\",\"NA\"]]" 115 "Union" "black" "non-degradated" "underlined" "46" NA
499.879 1.411 15328281 "Exp.Trial" 116 "[[352,407,\"NA\",\"NA\"]]" 116 "Radio" "black" "degradated" "not underlined" "109" NA
503.091 1.519 15331493 "Exp.Trial" 117 "[[314,369,\"NA\",\"NA\"]]" 117 "Härte" "black" "non-degradated" "underlined" "72" NA
506.224 1.008 15334626 "Exp.Trial" 118 "[[352,407,\"NA\",\"NA\"]]" 118 "Münze" "black" "degradated" "not underlined" "94" NA
508.94 1.821 15337342 "Exp.Trial" 119 "[[277,332,\"NA\",\"NA\"]]" 119 "Kluft" "blue" "degradated" "not underlined" "258" NA
512.286 1.254 15340688 "Exp.Trial" 120 "[[265,320,\"NA\",\"NA\"]]" 120 "Bombe" "black" "degradated" "underlined" "129" NA
516.235 1.194 15344637 "Exp.Trial" 121 "[[302,357,\"NA\",\"NA\"]]" 121 "Treff" "blue" "degradated" "not underlined" "270" NA
519.043 1.309 15347445 "Exp.Trial" 122 "[[252,307,\"NA\",\"NA\"]]" 122 "Minze" "blue" "degradated" "underlined" "303" NA
522.023 1.198 15350425 "Exp.Trial" 123 "[[240,295,\"NA\",\"NA\"]]" 123 "Gräte" "blue" "degradated" "not underlined" "243" NA
526.026 1.569 15354428 "Exp.Trial" 124 "[[364,419,\"NA\",\"NA\"]]" 124 "Garde" "black" "non-degradated" "not underlined" "39" NA
528.934 1.273 15357336 "Exp.Trial" 125 "[[277,332,\"NA\",\"NA\"]]" 125 "Beton" "black" "degradated" "underlined" "125" NA
531.882 1.233 15360284 "Exp.Trial" 126 "[[314,369,\"NA\",\"NA\"]]" 126 "Twist" "black" "non-degradated" "underlined" "79" NA
534.709 1.559 15363111 "Exp.Trial" 127 "[[314,369,\"NA\",\"NA\"]]" 127 "Mafia" "black" "non-degradated" "not underlined" "16" NA
537.637 1.352 15366039 "Exp.Trial" 128 "[[401,456,\"NA\",\"NA\"]]" 128 "Felge" "black" "degradated" "underlined" "160" 0
545.145 1.517 15373547 "Exp.Trial" 129 "[[414,469,\"NA\",\"NA\"]]" 129 "Pfand" "blue" "non-degradated" "underlined" "201" NA
548.331 2.074 15376733 "Exp.Trial" 130 "[[488,543,\"NA\",\"NA\"]]" 130 "Tisch" "black" "non-degradated" "underlined" "62" NA
551.922 1.538 15380324 "Exp.Trial" 131 "[[513,568,\"NA\",\"NA\"]]" 131 "Tolle" "blue" "degradated" "underlined" "300" NA
555.826 1.219 15384228 "Exp.Trial" 132 "[[290,345,\"NA\",\"NA\"]]" 132 "Sitte" "black" "degradated" "underlined" "151" NA
558.474 1.256 15386876 "Exp.Trial" 133 "[[302,357,\"NA\",\"NA\"]]" 133 "Viola" "blue" "non-degradated" "underlined" "217" NA
561.407 1.623 15389809 "Exp.Trial" 134 "[[252,307,\"NA\",\"NA\"]]" 134 "Sumpf" "blue" "non-degradated" "not underlined" "182" NA
565.982 0.954 15394384 "Exp.Trial" 135 "[[265,320,\"NA\",\"NA\"]]" 135 "Spott" "blue" "non-degradated" "not underlined" "180" 0
572.548 1.027 15400950 "Exp.Trial" 136 "[[265,320,\"NA\",\"NA\"]]" 136 "Getön" "blue" "non-degradated" "not underlined" "175" NA
576.066 1.85 15404468 "Exp.Trial" 137 "[[277,332,\"NA\",\"NA\"]]" 137 "Würze" "blue" "degradated" "not underlined" "263" NA
580.906 1.316 15409308 "Exp.Trial" 138 "[[314,369,\"NA\",\"NA\"]]" 138 "Beruf" "black" "non-degradated" "not underlined" "17" NA
583.845 1.016 15412247 "Exp.Trial" 139 "[[252,307,\"NA\",\"NA\"]]" 139 "Belag" "blue" "non-degradated" "underlined" "218" NA
587.682 1.638 15416084 "Exp.Trial" 140 "[[240,295,\"NA\",\"NA\"]]" 140 "Strom" "blue" "non-degradated" "not underlined" "163" NA
590.656 1.079 15419058 "Exp.Trial" 141 "[[228,283,\"NA\",\"NA\"]]" 141 "Kleid" "blue" "degradated" "underlined" "281" NA
593.53 1.565 15421932 "Exp.Trial" 142 "[[426,481,\"NA\",\"NA\"]]" 142 "Meise" "black" "degradated" "not underlined" "105" NA
598.211 1.647 15426613 "Exp.Trial" 143 "[[376,431,\"NA\",\"NA\"]]" 143 "Abbau" "blue" "degradated" "underlined" "302" 0
607.12 1.583 15435522 "Exp.Trial" 144 "[[252,307,\"NA\",\"NA\"]]" 144 "Achse" "blue" "non-degradated" "not underlined" "172" 0
614.195 1.141 15442597 "Exp.Trial" 145 "[[401,456,\"NA\",\"NA\"]]" 145 "Weihe" "blue" "degradated" "not underlined" "264" NA
616.692 1.262 15445094 "Exp.Trial" 146 "[[265,320,\"NA\",\"NA\"]]" 146 "Aktie" "blue" "degradated" "not underlined" "248" NA
619.597 1.05 15447999 "Exp.Trial" 147 "[[228,283,\"NA\",\"NA\"]]" 147 "Henne" "blue" "degradated" "underlined" "320" NA
624.029 1.928 15452431 "Exp.Trial" 148 "[[550,605,\"NA\",\"NA\"]]" 148 "Korps" "blue" "degradated" "underlined" "309" NA
627.614 1.353 15456016 "Exp.Trial" 149 "[[228,283,\"NA\",\"NA\"]]" 149 "Radar" "blue" "degradated" "underlined" "306" NA
631.437 1.752 15459839 "Exp.Trial" 150 "[[290,345,\"NA\",\"NA\"]]" 150 "Zobel" "black" "degradated" "underlined" "158" NA
634.854 1.305 15463256 "Exp.Trial" 151 "[[252,307,\"NA\",\"NA\"]]" 151 "Wärme" "black" "non-degradated" "not underlined" "21" NA
637.796 1.571 15466198 "Exp.Trial" 152 "[[376,431,\"NA\",\"NA\"]]" 152 "Heide" "blue" "non-degradated" "not underlined" "191" NA
640.935 1.513 15469337 "Exp.Trial" 153 "[[290,345,\"NA\",\"NA\"]]" 153 "Miliz" "black" "degradated" "not underlined" "120" 0
650.673 1.251 15479075 "Exp.Trial" 154 "[[327,382,\"NA\",\"NA\"]]" 154 "Reuse" "blue" "degradated" "underlined" "315" NA
653.521 2.233 15481923 "Exp.Trial" 155 "[[327,382,\"NA\",\"NA\"]]" 155 "Zuzug" "black" "degradated" "not underlined" "106" 0
662.75 1.436 15491152 "Exp.Trial" 156 "[[252,307,\"NA\",\"NA\"]]" 156 "Panne" "blue" "degradated" "not underlined" "276" NA
665.849 1.122 15494251 "Exp.Trial" 157 "[[327,382,\"NA\",\"NA\"]]" 157 "Rippe" "black" "non-degradated" "underlined" "56" NA
669.777 1.318 15498179 "Exp.Trial" 158 "[[240,295,\"NA\",\"NA\"]]" 158 "Abzug" "black" "degradated" "underlined" "130" 0
676.847 1.394 15505249 "Exp.Trial" 159 "[[476,531,\"NA\",\"NA\"]]" 159 "Reibe" "blue" "degradated" "underlined" "295" NA
679.861 1.518 15508263 "Exp.Trial" 160 "[[389,444,\"NA\",\"NA\"]]" 160 "Obhut" "black" "non-degradated" "not underlined" "40" NA
683.578 1.352 15511980 "Exp.Trial" 161 "[[277,332,\"NA\",\"NA\"]]" 161 "Wüste" "blue" "degradated" "not underlined" "261" 0
690.458 1.123 15518860 "Exp.Trial" 162 "[[438,493,\"NA\",\"NA\"]]" 162 "Musik" "blue" "non-degradated" "not underlined" "200" NA
693.011 1.396 15521413 "Exp.Trial" 163 "[[277,332,\"NA\",\"NA\"]]" 163 "Pizza" "blue" "non-degradated" "underlined" "211" NA
696.503 1.504 15524905 "Exp.Trial" 164 "[[550,605,\"NA\",\"NA\"]]" 164 "König" "blue" "non-degradated" "not underlined" "178" 0
704.762 1.176 15533164 "Exp.Trial" 165 "[[389,444,\"NA\",\"NA\"]]" 165 "Abruf" "black" "non-degradated" "underlined" "71" NA
708.693 1.332 15537095 "Exp.Trial" 166 "[[228,283,\"NA\",\"NA\"]]" 166 "Baske" "black" "non-degradated" "underlined" "78" NA
712.395 1.465 15540797 "Exp.Trial" 167 "[[376,431,\"NA\",\"NA\"]]" 167 "Zitat" "blue" "degradated" "underlined" "311" NA
715.477 1.566 15543879 "Exp.Trial" 168 "[[314,369,\"NA\",\"NA\"]]" 168 "Brust" "blue" "degradated" "not underlined" "251" 0
724.237 1.268 15552639 "Exp.Trial" 169 "[[302,357,\"NA\",\"NA\"]]" 169 "Waage" "blue" "degradated" "not underlined" "255" 0
731.143 1.371 15559545 "Exp.Trial" 170 "[[277,332,\"NA\",\"NA\"]]" 170 "Blech" "black" "non-degradated" "not underlined" "36" NA
734.089 1.239 15562491 "Exp.Trial" 171 "[[290,345,\"NA\",\"NA\"]]" 171 "Otter" "black" "degradated" "not underlined" "112" NA
736.897 1.272 15565299 "Exp.Trial" 172 "[[302,357,\"NA\",\"NA\"]]" 172 "Notiz" "blue" "degradated" "not underlined" "242" NA
739.758 1.413 15568160 "Exp.Trial" 173 "[[488,543,\"NA\",\"NA\"]]" 173 "Götze" "blue" "non-degradated" "not underlined" "179" 0
746.722 1.22 15575124 "Exp.Trial" 174 "[[277,332,\"NA\",\"NA\"]]" 174 "Zeile" "black" "degradated" "not underlined" "88" NA
749.543 1.884 15577945 "Exp.Trial" 175 "[[426,481,\"NA\",\"NA\"]]" 175 "Juwel" "black" "degradated" "underlined" "142" NA
754.461 1.26 15582863 "Exp.Trial" 176 "[[314,369,\"NA\",\"NA\"]]" 176 "Pedal" "blue" "non-degradated" "underlined" "214" NA
757.123 1.13 15585525 "Exp.Trial" 177 "[[228,283,\"NA\",\"NA\"]]" 177 "Blatt" "black" "degradated" "not underlined" "115" NA
759.992 1.265 15588394 "Exp.Trial" 178 "[[364,419,\"NA\",\"NA\"]]" 178 "Bande" "blue" "non-degradated" "underlined" "209" NA
763.411 1.508 15591813 "Exp.Trial" 179 "[[265,320,\"NA\",\"NA\"]]" 179 "Balte" "blue" "non-degradated" "underlined" "239" NA
766.511 1.882 15594913 "Exp.Trial" 180 "[[414,469,\"NA\",\"NA\"]]" 180 "Fjord" "blue" "degradated" "underlined" "283" NA
770.042 1.745 15598444 "Exp.Trial" 181 "[[339,394,\"NA\",\"NA\"]]" 181 "Spore" "black" "non-degradated" "underlined" "42" NA
773.459 1.141 15601861 "Exp.Trial" 182 "[[314,369,\"NA\",\"NA\"]]" 182 "Feder" "blue" "non-degradated" "underlined" "231" NA
776.944 1.191 15605346 "Exp.Trial" 183 "[[401,456,\"NA\",\"NA\"]]" 183 "Klaps" "black" "non-degradated" "underlined" "70" 0
783.942 1.878 15612344 "Exp.Trial" 184 "[[339,394,\"NA\",\"NA\"]]" 184 "Drill" "black" "degradated" "underlined" "128" NA
788.177 1.538 15616579 "Exp.Trial" 185 "[[302,357,\"NA\",\"NA\"]]" 185 "Anbau" "blue" "degradated" "not underlined" "250" NA
791.225 1.387 15619627 "Exp.Trial" 186 "[[327,382,\"NA\",\"NA\"]]" 186 "Knast" "blue" "degradated" "not underlined" "278" 0
797.676 0.983 15626078 "Exp.Trial" 187 "[[252,307,\"NA\",\"NA\"]]" 187 "Kette" "blue" "non-degradated" "not underlined" "199" 0
804.547 2.078 15632949 "Exp.Trial" 188 "[[228,283,\"NA\",\"NA\"]]" 188 "Etage" "blue" "degradated" "not underlined" "260" 0
815.627 1.303 15644029 "Exp.Trial" 189 "[[228,283,\"NA\",\"NA\"]]" 189 "Kokon" "black" "non-degradated" "underlined" "52" NA
818.521 1.226 15646923 "Exp.Trial" 190 "[[252,307,\"NA\",\"NA\"]]" 190 "Depot" "black" "degradated" "underlined" "135" NA
821.315 1.302 15649717 "Exp.Trial" 191 "[[352,407,\"NA\",\"NA\"]]" 191 "Paket" "black" "non-degradated" "underlined" "77" NA
824.255 1.304 15652657 "Exp.Trial" 192 "[[389,444,\"NA\",\"NA\"]]" 192 "Beute" "blue" "non-degradated" "not underlined" "169" NA
827.848 1.256 15656250 "Exp.Trial" 193 "[[228,283,\"NA\",\"NA\"]]" 193 "Ölung" "black" "non-degradated" "not underlined" "14" NA
831.348 1.418 15659750 "Exp.Trial" 194 "[[476,531,\"NA\",\"NA\"]]" 194 "Gusto" "blue" "non-degradated" "underlined" "220" NA
834.644 1.78 15663046 "Exp.Trial" 195 "[[748,803,\"NA\",\"NA\"]]" 195 "Sühne" "black" "non-degradated" "not underlined" "18" NA
838.004 1.46 15666406 "Exp.Trial" 196 "[[265,320,\"NA\",\"NA\"]]" 196 "Votum" "blue" "degradated" "underlined" "317" 0
847.007 1.333 15675409 "Exp.Trial" 197 "[[389,444,\"NA\",\"NA\"]]" 197 "Puder" "blue" "non-degradated" "not underlined" "181" NA
850.101 1.491 15678503 "Exp.Trial" 198 "[[252,307,\"NA\",\"NA\"]]" 198 "Madam" "black" "non-degradated" "not underlined" "4" 0
858.164 1.49 15686566 "Exp.Trial" 199 "[[302,357,\"NA\",\"NA\"]]" 199 "Mokka" "blue" "degradated" "underlined" "312" NA
861.078 1.242 15689480 "Exp.Trial" 200 "[[339,394,\"NA\",\"NA\"]]" 200 "Ratte" "black" "non-degradated" "underlined" "49" NA
865.227 1.472 15693629 "Exp.Trial" 201 "[[476,531,\"NA\",\"NA\"]]" 201 "Lunge" "black" "degradated" "not underlined" "81" NA
868.129 1.216 15696531 "Exp.Trial" 202 "[[215,270,\"NA\",\"NA\"]]" 202 "Linse" "blue" "non-degradated" "not underlined" "162" 0
876.418 1.137 15704820 "Exp.Trial" 203 "[[314,369,\"NA\",\"NA\"]]" 203 "Kajak" "blue" "non-degradated" "not underlined" "190" 0
884.945 1.88 15713347 "Exp.Trial" 204 "[[476,531,\"NA\",\"NA\"]]" 204 "Erlös" "black" "non-degradated" "underlined" "47" NA
888.409 1.259 15716811 "Exp.Trial" 205 "[[240,295,\"NA\",\"NA\"]]" 205 "Pfahl" "blue" "non-degradated" "not underlined" "189" NA
893.294 1.032 15721696 "Exp.Trial" 206 "[[228,283,\"NA\",\"NA\"]]" 206 "Regal" "black" "non-degradated" "not underlined" "10" NA
896.116 1.124 15724518 "Exp.Trial" 207 "[[265,320,\"NA\",\"NA\"]]" 207 "Pilot" "black" "degradated" "underlined" "132" NA
898.91 1.351 15727312 "Exp.Trial" 208 "[[364,419,\"NA\",\"NA\"]]" 208 "Polio" "black" "degradated" "not underlined" "103" NA
903.749 1.962 15732151 "Exp.Trial" 209 "[[600,655,\"NA\",\"NA\"]]" 209 "Leere" "blue" "degradated" "underlined" "290" NA
907.255 1.311 15735657 "Exp.Trial" 210 "[[339,394,\"NA\",\"NA\"]]" 210 "Gebet" "black" "degradated" "underlined" "156" NA
910.268 1.438 15738670 "Exp.Trial" 211 "[[277,332,\"NA\",\"NA\"]]" 211 "Herde" "blue" "non-degradated" "underlined" "204" NA
913.979 0.996 15742381 "Exp.Trial" 212 "[[277,332,\"NA\",\"NA\"]]" 212 "Enkel" "blue" "non-degradated" "underlined" "205" 0
920.623 1.441 15749025 "Exp.Trial" 213 "[[314,369,\"NA\",\"NA\"]]" 213 "Boxer" "blue" "degradated" "underlined" "313" NA
923.458 1.274 15751860 "Exp.Trial" 214 "[[228,283,\"NA\",\"NA\"]]" 214 "Vogel" "blue" "non-degradated" "underlined" "206" NA
926.412 1.326 15754814 "Exp.Trial" 215 "[[228,283,\"NA\",\"NA\"]]" 215 "Lette" "black" "degradated" "not underlined" "96" NA
929.963 1.172 15758365 "Exp.Trial" 216 "[[500,555,\"NA\",\"NA\"]]" 216 "Tulpe" "blue" "degradated" "not underlined" "245" NA
934.869 1.146 15763271 "Exp.Trial" 217 "[[290,345,\"NA\",\"NA\"]]" 217 "Motiv" "black" "non-degradated" "not underlined" "13" NA
937.73 1.977 15766132 "Exp.Trial" 218 "[[339,394,\"NA\",\"NA\"]]" 218 "Pulle" "black" "non-degradated" "underlined" "48" 0
947.109 1.674 15775511 "Exp.Trial" 219 "[[314,369,\"NA\",\"NA\"]]" 219 "Zucht" "black" "degradated" "not underlined" "111" NA
950.15 1.415 15778552 "Exp.Trial" 220 "[[575,630,\"NA\",\"NA\"]]" 220 "Blitz" "black" "degradated" "underlined" "121" NA
954.087 1.962 15782489 "Exp.Trial" 221 "[[277,332,\"NA\",\"NA\"]]" 221 "Tapir" "black" "degradated" "not underlined" "92" NA
957.731 1.415 15786133 "Exp.Trial" 222 "[[302,357,\"NA\",\"NA\"]]" 222 "Teint" "blue" "non-degradated" "underlined" "229" NA
961.382 1.858 15789784 "Exp.Trial" 223 "[[302,357,\"NA\",\"NA\"]]" 223 "Büste" "black" "non-degradated" "not underlined" "25" NA
966.474 1.249 15794876 "Exp.Trial" 224 "[[414,469,\"NA\",\"NA\"]]" 224 "Sippe" "blue" "non-degradated" "not underlined" "188" NA
969.381 1.336 15797783 "Exp.Trial" 225 "[[265,320,\"NA\",\"NA\"]]" 225 "Beize" "black" "non-degradated" "underlined" "58" NA
972.335 1.323 15800737 "Exp.Trial" 226 "[[240,295,\"NA\",\"NA\"]]" 226 "Flair" "black" "degradated" "underlined" "147" NA
975.993 1.159 15804395 "Exp.Trial" 227 "[[228,283,\"NA\",\"NA\"]]" 227 "Runde" "black" "degradated" "not underlined" "108" NA
980.947 1.193 15809349 "Exp.Trial" 228 "[[228,283,\"NA\",\"NA\"]]" 228 "Datum" "black" "degradated" "not underlined" "107" NA
983.706 1.736 15812108 "Exp.Trial" 229 "[[327,382,\"NA\",\"NA\"]]" 229 "Beleg" "blue" "non-degradated" "underlined" "212" NA
987.132 1.527 15815534 "Exp.Trial" 230 "[[290,345,\"NA\",\"NA\"]]" 230 "Möbel" "blue" "non-degradated" "underlined" "226" 0
994.441 1.092 15822843 "Exp.Trial" 231 "[[327,382,\"NA\",\"NA\"]]" 231 "Lücke" "black" "non-degradated" "underlined" "80" NA
996.99 1.32 15825392 "Exp.Trial" 232 "[[401,456,\"NA\",\"NA\"]]" 232 "Gicht" "black" "non-degradated" "not underlined" "33" NA
999.665 1.169 15828067 "Exp.Trial" 233 "[[376,431,\"NA\",\"NA\"]]" 233 "Rispe" "blue" "degradated" "not underlined" "275" 0
1008.506 1.604 15836908 "Exp.Trial" 234 "[[265,320,\"NA\",\"NA\"]]" 234 "Moder" "black" "degradated" "not underlined" "97" NA
1013.844 1.364 15842246 "Exp.Trial" 235 "[[302,357,\"NA\",\"NA\"]]" 235 "Säule" "black" "degradated" "underlined" "126" NA
1018.106 1.106 15846508 "Exp.Trial" 236 "[[376,431,\"NA\",\"NA\"]]" 236 "Ärmel" "black" "non-degradated" "underlined" "76" 0
1025.408 1.246 15853810 "Exp.Trial" 237 "[[339,394,\"NA\",\"NA\"]]" 237 "Malve" "blue" "degradated" "not underlined" "241" NA
1028.282 1.39 15856684 "Exp.Trial" 238 "[[538,593,\"NA\",\"NA\"]]" 238 "Gramm" "blue" "degradated" "not underlined" "279" NA
1033.307 1.703 15861709 "Exp.Trial" 239 "[[302,357,\"NA\",\"NA\"]]" 239 "Markt" "black" "non-degradated" "underlined" "74" NA
1036.772 1.555 15865174 "Exp.Trial" 240 "[[215,270,\"NA\",\"NA\"]]" 240 "Psalm" "black" "degradated" "not underlined" "118" NA
1042.668 1.072 15871070 "Exp.Trial" 241 "[[364,419,\"NA\",\"NA\"]]" 241 "Figur" "blue" "non-degradated" "underlined" "232" NA
1045.608 1.321 15874010 "Exp.Trial" 242 "[[451,506,\"NA\",\"NA\"]]" 242 "Äther" "black" "non-degradated" "not underlined" "34" NA
1048.53 1.213 15876932 "Exp.Trial" 243 "[[228,283,\"NA\",\"NA\"]]" 243 "Echse" "blue" "degradated" "underlined" "288" 0
1055.75 1.328 15884152 "Exp.Trial" 244 "[[240,295,\"NA\",\"NA\"]]" 244 "Matte" "black" "degradated" "underlined" "143" NA
1058.745 1.661 15887147 "Exp.Trial" 245 "[[438,493,\"NA\",\"NA\"]]" 245 "Hagel" "blue" "non-degradated" "underlined" "227" NA
1061.979 1.193 15890381 "Exp.Trial" 246 "[[265,320,\"NA\",\"NA\"]]" 246 "Summe" "black" "degradated" "underlined" "123" NA
1064.732 1.417 15893134 "Exp.Trial" 247 "[[525,580,\"NA\",\"NA\"]]" 247 "Polka" "black" "degradated" "not underlined" "102" NA
1067.86 1.542 15896262 "Exp.Trial" 248 "[[302,357,\"NA\",\"NA\"]]" 248 "Sigma" "blue" "non-degradated" "underlined" "234" NA
1071.031 1.311 15899433 "Exp.Trial" 249 "[[265,320,\"NA\",\"NA\"]]" 249 "Miene" "black" "degradated" "underlined" "155" 0
1078.428 1.862 15906830 "Exp.Trial" 250 "[[327,382,\"NA\",\"NA\"]]" 250 "Ungar" "black" "degradated" "not underlined" "95" 0
1086.858 1.424 15915260 "Exp.Trial" 251 "[[203,258,\"NA\",\"NA\"]]" 251 "Thron" "blue" "degradated" "underlined" "307" NA
1089.969 1.116 15918371 "Exp.Trial" 252 "[[339,394,\"NA\",\"NA\"]]" 252 "Karat" "black" "non-degradated" "not underlined" "37" NA
1093.776 0.984 15922178 "Exp.Trial" 253 "[[290,345,\"NA\",\"NA\"]]" 253 "Drama" "blue" "degradated" "underlined" "314" NA
1096.529 1.282 15924931 "Exp.Trial" 254 "[[215,270,\"NA\",\"NA\"]]" 254 "Pirat" "black" "degradated" "underlined" "133" NA
1099.578 1.381 15927980 "Exp.Trial" 255 "[[290,345,\"NA\",\"NA\"]]" 255 "Porto" "black" "non-degradated" "underlined" "59" NA
1104.455 1.021 15932857 "Exp.Trial" 256 "[[314,369,\"NA\",\"NA\"]]" 256 "Luder" "blue" "degradated" "not underlined" "259" NA
1107.132 1.091 15935534 "Exp.Trial" 257 "[[352,407,\"NA\",\"NA\"]]" 257 "Lachs" "black" "non-degradated" "not underlined" "24" 0
1113.511 1.67 15941913 "Exp.Trial" 258 "[[215,270,\"NA\",\"NA\"]]" 258 "Hüter" "black" "non-degradated" "underlined" "66" NA
1116.585 0.965 15944987 "Exp.Trial" 259 "[[240,295,\"NA\",\"NA\"]]" 259 "Jubel" "black" "non-degradated" "not underlined" "12" 0
1122.805 0.915 15951207 "Exp.Trial" 260 "[[265,320,\"NA\",\"NA\"]]" 260 "Natur" "blue" "degradated" "not underlined" "246" NA
1125.419 1.207 15953821 "Exp.Trial" 261 "[[401,456,\"NA\",\"NA\"]]" 261 "Bogen" "blue" "non-degradated" "underlined" "221" NA
1128.261 1.01 15956663 "Exp.Trial" 262 "[[240,295,\"NA\",\"NA\"]]" 262 "Zecke" "blue" "non-degradated" "not underlined" "170" NA
1132.311 1.103 15960713 "Exp.Trial" 263 "[[277,332,\"NA\",\"NA\"]]" 263 "Mensa" "black" "degradated" "not underlined" "83" NA
1134.972 1.071 15963374 "Exp.Trial" 264 "[[339,394,\"NA\",\"NA\"]]" 264 "Seide" "black" "degradated" "underlined" "152" NA
1137.441 2.003 15965843 "Exp.Trial" 265 "[[414,469,\"NA\",\"NA\"]]" 265 "Quart" "black" "degradated" "underlined" "146" NA
1142.035 1.292 15970437 "Exp.Trial" 266 "[[376,431,\"NA\",\"NA\"]]" 266 "Party" "blue" "non-degradated" "not underlined" "184" NA
1145.64 1.084 15974042 "Exp.Trial" 267 "[[240,295,\"NA\",\"NA\"]]" 267 "Probe" "black" "degradated" "not underlined" "117" NA
1148.455 1.191 15976857 "Exp.Trial" 268 "[[228,283,\"NA\",\"NA\"]]" 268 "Nylon" "black" "degradated" "underlined" "139" NA
1152.232 1.101 15980634 "Exp.Trial" 269 "[[277,332,\"NA\",\"NA\"]]" 269 "Datei" "black" "degradated" "underlined" "140" NA
1154.96 1.036 15983362 "Exp.Trial" 270 "[[252,307,\"NA\",\"NA\"]]" 270 "Mappe" "black" "non-degradated" "not underlined" "32" NA
1158.179 0.965 15986581 "Exp.Trial" 271 "[[290,345,\"NA\",\"NA\"]]" 271 "Fülle" "blue" "degradated" "not underlined" "271" NA
1160.835 1.514 15989237 "Exp.Trial" 272 "[[277,332,\"NA\",\"NA\"]]" 272 "Kerze" "blue" "non-degradated" "not underlined" "165" 0
1170.567 2.004 15998969 "Exp.Trial" 273 "[[339,394,\"NA\",\"NA\"]]" 273 "Raupe" "black" "degradated" "underlined" "153" NA
1174.264 1.473 16002666 "Exp.Trial" 274 "[[228,283,\"NA\",\"NA\"]]" 274 "Phase" "black" "non-degradated" "underlined" "69" NA
1178.838 1.388 16007240 "Exp.Trial" 275 "[[314,369,\"NA\",\"NA\"]]" 275 "Biest" "black" "degradated" "not underlined" "114" NA
1181.686 1.296 16010088 "Exp.Trial" 276 "[[252,307,\"NA\",\"NA\"]]" 276 "Major" "blue" "non-degradated" "not underlined" "195" NA
1184.52 1.55 16012922 "Exp.Trial" 277 "[[265,320,\"NA\",\"NA\"]]" 277 "Hocke" "blue" "degradated" "underlined" "308" 0
1191.537 1.239 16019939 "Exp.Trial" 278 "[[277,332,\"NA\",\"NA\"]]" 278 "Kater" "blue" "degradated" "not underlined" "252" NA
1195.891 1.396 16024293 "Exp.Trial" 279 "[[364,419,\"NA\",\"NA\"]]" 279 "Spreu" "blue" "non-degradated" "not underlined" "161" NA
1198.707 1.27 16027109 "Exp.Trial" 280 "[[414,469,\"NA\",\"NA\"]]" 280 "Block" "black" "non-degradated" "underlined" "60" NA
1202.835 1.035 16031237 "Exp.Trial" 281 "[[277,332,\"NA\",\"NA\"]]" 281 "Slawe" "blue" "non-degradated" "not underlined" "171" NA
1206.991 1.666 16035393 "Exp.Trial" 282 "[[352,407,\"NA\",\"NA\"]]" 282 "Dogma" "black" "non-degradated" "underlined" "67" NA
1210.357 1.712 16038759 "Exp.Trial" 283 "[[252,307,\"NA\",\"NA\"]]" 283 "Fehde" "blue" "non-degradated" "not underlined" "176" NA
1214.208 1.895 16042610 "Exp.Trial" 284 "[[364,419,\"NA\",\"NA\"]]" 284 "Griff" "blue" "non-degradated" "underlined" "225" NA
1217.95 1.263 16046352 "Exp.Trial" 285 "[[252,307,\"NA\",\"NA\"]]" 285 "Bitte" "blue" "non-degradated" "underlined" "235" NA
1220.851 1.452 16049253 "Exp.Trial" 286 "[[401,456,\"NA\",\"NA\"]]" 286 "Lehne" "blue" "non-degradated" "underlined" "224" NA
1225.273 1.232 16053675 "Exp.Trial" 287 "[[265,320,\"NA\",\"NA\"]]" 287 "Nugat" "black" "non-degradated" "underlined" "55" NA
1228.141 1.324 16056543 "Exp.Trial" 288 "[[389,444,\"NA\",\"NA\"]]" 288 "Logik" "black" "degradated" "underlined" "144" NA
1231.705 1.297 16060107 "Exp.Trial" 289 "[[352,407,\"NA\",\"NA\"]]" 289 "Fötus" "blue" "degradated" "underlined" "289" NA
1234.573 1.8 16062975 "Exp.Trial" 290 "[[364,419,\"NA\",\"NA\"]]" 290 "Axiom" "black" "non-degradated" "not underlined" "27" NA
1237.719 1.648 16066121 "Exp.Trial" 291 "[[401,456,\"NA\",\"NA\"]]" 291 "Wange" "blue" "degradated" "not underlined" "256" NA
1240.826 1.396 16069228 "Exp.Trial" 292 "[[414,469,\"NA\",\"NA\"]]" 292 "Plane" "blue" "degradated" "not underlined" "277" NA
1243.806 1.15 16072208 "Exp.Trial" 293 "[[277,332,\"NA\",\"NA\"]]" 293 "Zeche" "black" "degradated" "not underlined" "82" NA
1246.561 1.175 16074963 "Exp.Trial" 294 "[[265,320,\"NA\",\"NA\"]]" 294 "Sünde" "blue" "non-degradated" "underlined" "207" NA
1249.15 1.613 16077552 "Exp.Trial" 295 "[[228,283,\"NA\",\"NA\"]]" 295 "Basar" "blue" "non-degradated" "underlined" "203" NA
1252.376 1.342 16080778 "Exp.Trial" 296 "[[252,307,\"NA\",\"NA\"]]" 296 "Abgas" "black" "degradated" "underlined" "138" NA
1255.363 1.243 16083765 "Exp.Trial" 297 "[[290,345,\"NA\",\"NA\"]]" 297 "Wunde" "blue" "non-degradated" "underlined" "202" NA
1257.992 1.981 16086394 "Exp.Trial" 298 "[[426,481,\"NA\",\"NA\"]]" 298 "Liste" "black" "degradated" "not underlined" "99" 0
1267.784 1.505 16096186 "Exp.Trial" 299 "[[228,283,\"NA\",\"NA\"]]" 299 "Kunde" "black" "non-degradated" "not underlined" "20" NA
1270.757 1.724 16099159 "Exp.Trial" 300 "[[513,568,\"NA\",\"NA\"]]" 300 "Atoll" "black" "degradated" "not underlined" "98" NA
1274.661 1.36 16103063 "Exp.Trial" 301 "[[228,283,\"NA\",\"NA\"]]" 301 "Onkel" "black" "non-degradated" "not underlined" "35" NA
1277.443 1.677 16105845 "Exp.Trial" 302 "[[426,481,\"NA\",\"NA\"]]" 302 "Beuge" "black" "non-degradated" "underlined" "73" NA
1282.363 2.357 16110765 "Exp.Trial" 303 "[[401,456,\"NA\",\"NA\"]]" 303 "Kiste" "blue" "non-degradated" "not underlined" "187" 0
1291.457 1.833 16119859 "Exp.Trial" 304 "[[376,431,\"NA\",\"NA\"]]" 304 "Sehne" "black" "non-degradated" "not underlined" "26" NA
1294.854 1.877 16123256 "Exp.Trial" 305 "[[327,382,\"NA\",\"NA\"]]" 305 "Regie" "black" "degradated" "not underlined" "116" NA
1298.312 1.354 16126714 "Exp.Trial" 306 "[[426,481,\"NA\",\"NA\"]]" 306 "Müsli" "blue" "non-degradated" "underlined" "210" 0
1305.004 1.198 16133406 "Exp.Trial" 307 "[[215,270,\"NA\",\"NA\"]]" 307 "Yacht" "black" "non-degradated" "not underlined" "28" NA
1307.586 1.217 16135988 "Exp.Trial" 308 "[[327,382,\"NA\",\"NA\"]]" 308 "Beule" "blue" "degradated" "not underlined" "266" NA
1310.221 1.213 16138623 "Exp.Trial" 309 "[[277,332,\"NA\",\"NA\"]]" 309 "Geist" "black" "degradated" "underlined" "134" NA
1312.831 1.967 16141233 "Exp.Trial" 310 "[[327,382,\"NA\",\"NA\"]]" 310 "Karte" "blue" "degradated" "not underlined" "254" 0
1320.784 1.896 16149186 "Exp.Trial" 311 "[[327,382,\"NA\",\"NA\"]]" 311 "Daune" "black" "degradated" "not underlined" "110" NA
1324.368 1.26 16152770 "Exp.Trial" 312 "[[240,295,\"NA\",\"NA\"]]" 312 "Trupp" "blue" "degradated" "not underlined" "262" NA
1327.295 1.315 16155697 "Exp.Trial" 313 "[[228,283,\"NA\",\"NA\"]]" 313 "Hecke" "blue" "non-degradated" "underlined" "230" NA
1331.121 1.238 16159523 "Exp.Trial" 314 "[[240,295,\"NA\",\"NA\"]]" 314 "Messe" "blue" "degradated" "underlined" "310" NA
1333.959 1.822 16162361 "Exp.Trial" 315 "[[228,283,\"NA\",\"NA\"]]" 315 "Kongo" "black" "non-degradated" "not underlined" "15" NA
1337.306 1.233 16165708 "Exp.Trial" 316 "[[352,407,\"NA\",\"NA\"]]" 316 "Optik" "blue" "degradated" "underlined" "301" NA
1339.934 1.569 16168336 "Exp.Trial" 317 "[[513,568,\"NA\",\"NA\"]]" 317 "Quint" "blue" "degradated" "not underlined" "265" NA
1343.135 1.465 16171537 "Exp.Trial" 318 "[[339,394,\"NA\",\"NA\"]]" 318 "Weber" "black" "non-degradated" "not underlined" "38" 0
1350.556 1.306 16178958 "Exp.Trial" 319 "[[339,394,\"NA\",\"NA\"]]" 319 "Trott" "blue" "non-degradated" "not underlined" "194" NA
1354.128 1.282 16182530 "Exp.Trial" 320 "[[290,345,\"NA\",\"NA\"]]" 320 "Elite" "blue" "non-degradated" "underlined" "233" NA
