"onset" "duration" "sample" "trial_type" "eventIdentifier" "event_nr" "aoi" "trial" "target_word" "color" "mask" "underlining" "sentenceNr" "response"
0 2.019 19084045 "Exp.Trial" "MASKSCREEN_START_Tolle_E_DEG_N_513" 1 "[[502,579,384,384]]" 1 "Tolle" "blue" "degradated" "not underlined" "300" 0
8.605 1.517 19092650 "Exp.Trial" "MASKSCREEN_START_Tabak_E_DEG_N_290" 2 "[[279,356,384,384]]" 2 "Tabak" "blue" "degradated" "not underlined" "316" NA
15.236 2.2 19099281 "Exp.Trial" "MASKSCREEN_START_Biest_K_DEG_U_314" 3 "[[303,380,384,384]]" 3 "Biest" "black" "degradated" "underlined" "114" NA
22.683 4.042 19106728 "Exp.Trial" "MASKSCREEN_START_Sumpf_E_LET_U_252" 4 "[[241,318,384,384]]" 4 "Sumpf" "blue" "non-degradated" "underlined" "182" NA
32.475 2.436 19116520 "Exp.Trial" "MASKSCREEN_START_Reibe_E_DEG_N_476" 5 "[[465,542,384,384]]" 5 "Reibe" "blue" "degradated" "not underlined" "295" NA
40.256 2.308 19124301 "Exp.Trial" "MASKSCREEN_START_Härte_K_LET_N_314" 6 "[[303,380,384,384]]" 6 "Härte" "black" "non-degradated" "not underlined" "72" NA
48.175 2.051 19132220 "Exp.Trial" "MASKSCREEN_START_Bauer_E_LET_U_389" 7 "[[378,455,384,384]]" 7 "Bauer" "blue" "non-degradated" "underlined" "196" NA
54.666 2.814 19138711 "Exp.Trial" "MASKSCREEN_START_Dicke_K_LET_N_314" 8 "[[303,380,384,384]]" 8 "Dicke" "black" "non-degradated" "not underlined" "43" NA
61.99 1.279 19146035 "Exp.Trial" "MASKSCREEN_START_Anker_K_LET_U_290" 9 "[[279,356,384,384]]" 9 "Anker" "black" "non-degradated" "underlined" "22" 0
122.736 2.202 19206781 "Exp.Trial" "MASKSCREEN_START_Buchs_K_LET_U_426" 10 "[[415,492,384,384]]" 10 "Buchs" "black" "non-degradated" "underlined" "5" NA
127.476 2.112 19211521 "Exp.Trial" "MASKSCREEN_START_Nudel_K_DEG_N_426" 11 "[[415,492,384,384]]" 11 "Nudel" "black" "degradated" "not underlined" "154" 0
137.1 2.717 19221145 "Exp.Trial" "MASKSCREEN_START_Sorte_E_DEG_N_327" 12 "[[316,393,384,384]]" 12 "Sorte" "blue" "degradated" "not underlined" "299" NA
141.501 1.783 19225546 "Exp.Trial" "MASKSCREEN_START_Major_E_LET_U_252" 13 "[[241,318,384,384]]" 13 "Major" "blue" "non-degradated" "underlined" "195" NA
145.631 1.555 19229676 "Exp.Trial" "MASKSCREEN_START_Seide_K_DEG_N_339" 14 "[[328,405,384,384]]" 14 "Seide" "black" "degradated" "not underlined" "152" NA
148.753 1.558 19232798 "Exp.Trial" "MASKSCREEN_START_Amsel_K_DEG_N_240" 15 "[[229,306,384,384]]" 15 "Amsel" "black" "degradated" "not underlined" "137" NA
153 1.524 19237045 "Exp.Trial" "MASKSCREEN_START_Baske_K_LET_N_228" 16 "[[217,294,384,384]]" 16 "Baske" "black" "non-degradated" "not underlined" "78" 0
162.664 1.877 19246709 "Exp.Trial" "MASKSCREEN_START_Block_K_LET_N_414" 17 "[[403,480,384,384]]" 17 "Block" "black" "non-degradated" "not underlined" "60" NA
167.212 2.108 19251257 "Exp.Trial" "MASKSCREEN_START_Radio_K_DEG_U_352" 18 "[[341,418,384,384]]" 18 "Radio" "black" "degradated" "underlined" "109" NA
170.923 2.431 19254968 "Exp.Trial" "MASKSCREEN_START_Wuchs_K_DEG_U_228" 19 "[[217,294,384,384]]" 19 "Wuchs" "black" "degradated" "underlined" "85" NA
176.16 2.52 19260205 "Exp.Trial" "MASKSCREEN_START_Kongo_K_LET_U_228" 20 "[[217,294,384,384]]" 20 "Kongo" "black" "non-degradated" "underlined" "15" NA
180.282 1.908 19264327 "Exp.Trial" "MASKSCREEN_START_Blatt_K_DEG_U_228" 21 "[[217,294,384,384]]" 21 "Blatt" "black" "degradated" "underlined" "115" NA
183.852 2.386 19267897 "Exp.Trial" "MASKSCREEN_START_Seife_K_LET_U_290" 22 "[[279,356,384,384]]" 22 "Seife" "black" "non-degradated" "underlined" "6" NA
189.217 2.223 19273262 "Exp.Trial" "MASKSCREEN_START_Karte_E_DEG_U_327" 23 "[[316,393,384,384]]" 23 "Karte" "blue" "degradated" "underlined" "254" NA
193.873 1.613 19277918 "Exp.Trial" "MASKSCREEN_START_Optik_E_DEG_N_352" 24 "[[341,418,384,384]]" 24 "Optik" "blue" "degradated" "not underlined" "301" NA
197.801 2.375 19281846 "Exp.Trial" "MASKSCREEN_START_Abbau_E_DEG_N_376" 25 "[[365,442,384,384]]" 25 "Abbau" "blue" "degradated" "not underlined" "302" NA
201.856 2.099 19285901 "Exp.Trial" "MASKSCREEN_START_Blech_K_LET_U_277" 26 "[[266,343,384,384]]" 26 "Blech" "black" "non-degradated" "underlined" "36" NA
206.113 1.849 19290158 "Exp.Trial" "MASKSCREEN_START_Plane_E_DEG_U_414" 27 "[[403,480,384,384]]" 27 "Plane" "blue" "degradated" "underlined" "277" NA
210.488 2.136 19294533 "Exp.Trial" "MASKSCREEN_START_Basar_E_LET_N_228" 28 "[[217,294,384,384]]" 28 "Basar" "blue" "non-degradated" "not underlined" "203" NA
215.942 2.265 19299987 "Exp.Trial" "MASKSCREEN_START_Witwe_K_LET_N_352" 29 "[[341,418,384,384]]" 29 "Witwe" "black" "non-degradated" "not underlined" "64" NA
220.694 1.532 19304739 "Exp.Trial" "MASKSCREEN_START_Regal_K_LET_U_228" 30 "[[217,294,384,384]]" 30 "Regal" "black" "non-degradated" "underlined" "10" NA
223.915 1.569 19307960 "Exp.Trial" "MASKSCREEN_START_Flair_K_DEG_N_240" 31 "[[229,306,384,384]]" 31 "Flair" "black" "degradated" "not underlined" "147" NA
228.044 2.34 19312089 "Exp.Trial" "MASKSCREEN_START_Tunke_K_LET_U_252" 32 "[[241,318,384,384]]" 32 "Tunke" "black" "non-degradated" "underlined" "30" NA
232.034 2.548 19316079 "Exp.Trial" "MASKSCREEN_START_Otter_K_DEG_U_290" 33 "[[279,356,384,384]]" 33 "Otter" "black" "degradated" "underlined" "112" NA
236.934 2.037 19320979 "Exp.Trial" "MASKSCREEN_START_Balte_E_LET_N_265" 34 "[[254,331,384,384]]" 34 "Balte" "blue" "non-degradated" "not underlined" "239" 0
246.578 2.234 19330623 "Exp.Trial" "MASKSCREEN_START_Tapir_K_DEG_U_277" 35 "[[266,343,384,384]]" 35 "Tapir" "black" "degradated" "underlined" "92" 0
260.883 1.923 19344928 "Exp.Trial" "MASKSCREEN_START_Echse_E_DEG_N_228" 36 "[[217,294,384,384]]" 36 "Echse" "blue" "degradated" "not underlined" "288" NA
264.409 2.64 19348454 "Exp.Trial" "MASKSCREEN_START_Mimik_E_DEG_N_352" 37 "[[341,418,384,384]]" 37 "Mimik" "blue" "degradated" "not underlined" "293" NA
269.64 1.755 19353685 "Exp.Trial" "MASKSCREEN_START_Götze_E_LET_U_488" 38 "[[477,554,384,384]]" 38 "Götze" "blue" "non-degradated" "underlined" "179" NA
274.234 1.748 19358279 "Exp.Trial" "MASKSCREEN_START_Kelch_K_LET_U_327" 39 "[[316,393,384,384]]" 39 "Kelch" "black" "non-degradated" "underlined" "8" 0
282.386 2.128 19366431 "Exp.Trial" "MASKSCREEN_START_Meise_K_DEG_U_426" 40 "[[415,492,384,384]]" 40 "Meise" "black" "degradated" "underlined" "105" NA
287.53 2.225 19371575 "Exp.Trial" "MASKSCREEN_START_Lette_K_DEG_U_228" 41 "[[217,294,384,384]]" 41 "Lette" "black" "degradated" "underlined" "96" NA
291.354 1.781 19375399 "Exp.Trial" "MASKSCREEN_START_Notiz_E_DEG_U_302" 42 "[[291,368,384,384]]" 42 "Notiz" "blue" "degradated" "underlined" "242" NA
295.522 2.4 19379567 "Exp.Trial" "MASKSCREEN_START_Brust_E_DEG_U_314" 43 "[[303,380,384,384]]" 43 "Brust" "blue" "degradated" "underlined" "251" NA
301.45 2.705 19385495 "Exp.Trial" "MASKSCREEN_START_Zwang_E_DEG_U_352" 44 "[[341,418,384,384]]" 44 "Zwang" "blue" "degradated" "underlined" "272" NA
306.782 1.873 19390827 "Exp.Trial" "MASKSCREEN_START_Mafia_K_LET_U_314" 45 "[[303,380,384,384]]" 45 "Mafia" "black" "non-degradated" "underlined" "16" NA
310.266 1.928 19394311 "Exp.Trial" "MASKSCREEN_START_Puder_E_LET_U_389" 46 "[[378,455,384,384]]" 46 "Puder" "blue" "non-degradated" "underlined" "181" NA
314.721 2.688 19398766 "Exp.Trial" "MASKSCREEN_START_Bürde_E_LET_N_290" 47 "[[279,356,384,384]]" 47 "Bürde" "blue" "non-degradated" "not underlined" "238" NA
319.095 2.05 19403140 "Exp.Trial" "MASKSCREEN_START_Buche_K_DEG_N_339" 48 "[[328,405,384,384]]" 48 "Buche" "black" "degradated" "not underlined" "122" NA
323.979 2.313 19408024 "Exp.Trial" "MASKSCREEN_START_Ziege_K_LET_N_451" 49 "[[440,517,384,384]]" 49 "Ziege" "black" "non-degradated" "not underlined" "51" NA
327.844 2.378 19411889 "Exp.Trial" "MASKSCREEN_START_Salbe_E_DEG_U_277" 50 "[[266,343,384,384]]" 50 "Salbe" "blue" "degradated" "underlined" "247" NA
331.827 2.156 19415872 "Exp.Trial" "MASKSCREEN_START_Insel_K_LET_U_339" 51 "[[328,405,384,384]]" 51 "Insel" "black" "non-degradated" "underlined" "2" NA
337.423 1.816 19421468 "Exp.Trial" "MASKSCREEN_START_Knast_E_DEG_U_327" 52 "[[316,393,384,384]]" 52 "Knast" "blue" "degradated" "underlined" "278" NA
341.611 2.034 19425656 "Exp.Trial" "MASKSCREEN_START_Kajak_E_LET_U_314" 53 "[[303,380,384,384]]" 53 "Kajak" "blue" "non-degradated" "underlined" "190" NA
345.416 1.792 19429461 "Exp.Trial" "MASKSCREEN_START_Dämon_E_LET_U_265" 54 "[[254,331,384,384]]" 54 "Dämon" "blue" "non-degradated" "underlined" "192" NA
350.34 2.407 19434385 "Exp.Trial" "MASKSCREEN_START_Garde_K_LET_U_364" 55 "[[353,430,384,384]]" 55 "Garde" "black" "non-degradated" "underlined" "39" NA
354.815 1.383 19438860 "Exp.Trial" "MASKSCREEN_START_Wunde_E_LET_N_290" 56 "[[279,356,384,384]]" 56 "Wunde" "blue" "non-degradated" "not underlined" "202" NA
357.828 1.797 19441873 "Exp.Trial" "MASKSCREEN_START_Mensa_K_DEG_U_277" 57 "[[266,343,384,384]]" 57 "Mensa" "black" "degradated" "underlined" "83" NA
361.858 1.477 19445903 "Exp.Trial" "MASKSCREEN_START_Ikone_E_DEG_U_314" 58 "[[303,380,384,384]]" 58 "Ikone" "blue" "degradated" "underlined" "267" NA
365.011 1.506 19449056 "Exp.Trial" "MASKSCREEN_START_Karat_K_LET_U_339" 59 "[[328,405,384,384]]" 59 "Karat" "black" "non-degradated" "underlined" "37" NA
368.631 1.796 19452676 "Exp.Trial" "MASKSCREEN_START_Motte_K_LET_N_252" 60 "[[241,318,384,384]]" 60 "Motte" "black" "non-degradated" "not underlined" "63" NA
373.415 2.333 19457460 "Exp.Trial" "MASKSCREEN_START_Beize_K_LET_N_265" 61 "[[254,331,384,384]]" 61 "Beize" "black" "non-degradated" "not underlined" "58" NA
377.497 2.083 19461542 "Exp.Trial" "MASKSCREEN_START_Gräte_E_DEG_U_240" 62 "[[229,306,384,384]]" 62 "Gräte" "blue" "degradated" "underlined" "243" NA
381.562 1.559 19465607 "Exp.Trial" "MASKSCREEN_START_Nylon_K_DEG_N_228" 63 "[[217,294,384,384]]" 63 "Nylon" "black" "degradated" "not underlined" "139" NA
384.554 1.887 19468599 "Exp.Trial" "MASKSCREEN_START_Bitte_E_LET_N_252" 64 "[[241,318,384,384]]" 64 "Bitte" "blue" "non-degradated" "not underlined" "235" NA
388.033 1.661 19472078 "Exp.Trial" "MASKSCREEN_START_Ölung_K_LET_U_228" 65 "[[217,294,384,384]]" 65 "Ölung" "black" "non-degradated" "underlined" "14" 0
397.087 1.762 19481132 "Exp.Trial" "MASKSCREEN_START_Mappe_K_LET_U_252" 66 "[[241,318,384,384]]" 66 "Mappe" "black" "non-degradated" "underlined" "32" NA
400.479 1.676 19484524 "Exp.Trial" "MASKSCREEN_START_Beruf_K_LET_U_314" 67 "[[303,380,384,384]]" 67 "Beruf" "black" "non-degradated" "underlined" "17" NA
404.628 1.708 19488673 "Exp.Trial" "MASKSCREEN_START_Alter_E_DEG_N_228" 68 "[[217,294,384,384]]" 68 "Alter" "blue" "degradated" "not underlined" "296" NA
408.816 1.787 19492861 "Exp.Trial" "MASKSCREEN_START_Möbel_E_LET_N_290" 69 "[[279,356,384,384]]" 69 "Möbel" "blue" "non-degradated" "not underlined" "226" NA
412.336 2.41 19496381 "Exp.Trial" "MASKSCREEN_START_Dunst_K_DEG_N_277" 70 "[[266,343,384,384]]" 70 "Dunst" "black" "degradated" "not underlined" "150" NA
416.405 2.326 19500450 "Exp.Trial" "MASKSCREEN_START_Kutte_K_LET_U_240" 71 "[[229,306,384,384]]" 71 "Kutte" "black" "non-degradated" "underlined" "9" NA
420.912 1.824 19504957 "Exp.Trial" "MASKSCREEN_START_Decke_K_DEG_U_414" 72 "[[403,480,384,384]]" 72 "Decke" "black" "degradated" "underlined" "86" NA
425.448 2.475 19509493 "Exp.Trial" "MASKSCREEN_START_Hülle_E_DEG_N_252" 73 "[[241,318,384,384]]" 73 "Hülle" "blue" "degradated" "not underlined" "294" 0
435.35 1.524 19519395 "Exp.Trial" "MASKSCREEN_START_Krebs_K_LET_U_228" 74 "[[217,294,384,384]]" 74 "Krebs" "black" "non-degradated" "underlined" "29" 0
441.802 1.739 19525847 "Exp.Trial" "MASKSCREEN_START_Opfer_K_DEG_N_339" 75 "[[328,405,384,384]]" 75 "Opfer" "black" "degradated" "not underlined" "157" NA
445.234 2.629 19529279 "Exp.Trial" "MASKSCREEN_START_Bowle_E_DEG_U_215" 76 "[[204,281,384,384]]" 76 "Bowle" "blue" "degradated" "underlined" "269" NA
450.1 1.63 19534145 "Exp.Trial" "MASKSCREEN_START_Liege_E_DEG_U_215" 77 "[[204,281,384,384]]" 77 "Liege" "blue" "degradated" "underlined" "280" 0
456.452 1.211 19540497 "Exp.Trial" "MASKSCREEN_START_Rache_E_LET_N_302" 78 "[[291,368,384,384]]" 78 "Rache" "blue" "non-degradated" "not underlined" "223" NA
461.111 1.583 19545156 "Exp.Trial" "MASKSCREEN_START_Motor_K_DEG_U_252" 79 "[[241,318,384,384]]" 79 "Motor" "black" "degradated" "underlined" "89" NA
465.254 2.447 19549299 "Exp.Trial" "MASKSCREEN_START_Hafer_E_LET_U_203" 80 "[[192,269,384,384]]" 80 "Hafer" "blue" "non-degradated" "underlined" "177" NA
469.896 1.662 19553941 "Exp.Trial" "MASKSCREEN_START_Pfund_E_LET_U_426" 81 "[[415,492,384,384]]" 81 "Pfund" "blue" "non-degradated" "underlined" "164" NA
473.712 1.809 19557757 "Exp.Trial" "MASKSCREEN_START_Torte_K_DEG_N_240" 82 "[[229,306,384,384]]" 82 "Torte" "black" "degradated" "not underlined" "149" 0
481.169 1.482 19565214 "Exp.Trial" "MASKSCREEN_START_Reuse_E_DEG_N_327" 83 "[[316,393,384,384]]" 83 "Reuse" "blue" "degradated" "not underlined" "315" NA
484.161 1.681 19568206 "Exp.Trial" "MASKSCREEN_START_Tante_E_LET_N_265" 84 "[[254,331,384,384]]" 84 "Tante" "blue" "non-degradated" "not underlined" "215" NA
487.42 3.254 19571465 "Exp.Trial" "MASKSCREEN_START_Psalm_K_DEG_U_215" 85 "[[204,281,384,384]]" 85 "Psalm" "black" "degradated" "underlined" "118" NA
492.812 2.003 19576857 "Exp.Trial" "MASKSCREEN_START_Porto_K_LET_N_290" 86 "[[279,356,384,384]]" 86 "Porto" "black" "non-degradated" "not underlined" "59" NA
497.146 2.108 19581191 "Exp.Trial" "MASKSCREEN_START_Datum_K_DEG_U_228" 87 "[[217,294,384,384]]" 87 "Datum" "black" "degradated" "underlined" "107" NA
502.383 1.968 19586428 "Exp.Trial" "MASKSCREEN_START_Fehde_E_LET_U_252" 88 "[[241,318,384,384]]" 88 "Fehde" "blue" "non-degradated" "underlined" "176" NA
506.107 1.671 19590152 "Exp.Trial" "MASKSCREEN_START_Bande_E_LET_N_364" 89 "[[353,430,384,384]]" 89 "Bande" "blue" "non-degradated" "not underlined" "209" NA
510.251 2.276 19594296 "Exp.Trial" "MASKSCREEN_START_Bühne_K_DEG_U_488" 90 "[[477,554,384,384]]" 90 "Bühne" "black" "degradated" "underlined" "101" NA
514.106 2.467 19598151 "Exp.Trial" "MASKSCREEN_START_Büste_K_LET_U_302" 91 "[[291,368,384,384]]" 91 "Büste" "black" "non-degradated" "underlined" "25" NA
518.169 2.474 19602214 "Exp.Trial" "MASKSCREEN_START_Agent_E_DEG_N_401" 92 "[[390,467,384,384]]" 92 "Agent" "blue" "degradated" "not underlined" "291" NA
522.253 2.027 19606298 "Exp.Trial" "MASKSCREEN_START_Tarif_K_DEG_U_215" 93 "[[204,281,384,384]]" 93 "Tarif" "black" "degradated" "underlined" "90" NA
525.909 2.296 19609954 "Exp.Trial" "MASKSCREEN_START_Kater_E_DEG_U_277" 94 "[[266,343,384,384]]" 94 "Kater" "blue" "degradated" "underlined" "252" NA
530.595 1.923 19614640 "Exp.Trial" "MASKSCREEN_START_Beton_K_DEG_N_277" 95 "[[266,343,384,384]]" 95 "Beton" "black" "degradated" "not underlined" "125" NA
534.134 1.847 19618179 "Exp.Trial" "MASKSCREEN_START_Sünde_E_LET_N_265" 96 "[[254,331,384,384]]" 96 "Sünde" "blue" "non-degradated" "not underlined" "207" NA
537.659 1.986 19621704 "Exp.Trial" "MASKSCREEN_START_Eimer_E_LET_N_538" 97 "[[527,604,384,384]]" 97 "Eimer" "blue" "non-degradated" "not underlined" "216" NA
541.827 2.311 19625872 "Exp.Trial" "MASKSCREEN_START_Obhut_K_LET_U_389" 98 "[[378,455,384,384]]" 98 "Obhut" "black" "non-degradated" "underlined" "40" NA
545.744 1.641 19629789 "Exp.Trial" "MASKSCREEN_START_Zeche_K_DEG_U_277" 99 "[[266,343,384,384]]" 99 "Zeche" "black" "degradated" "underlined" "82" NA
548.943 1.687 19632988 "Exp.Trial" "MASKSCREEN_START_Luder_E_DEG_U_314" 100 "[[303,380,384,384]]" 100 "Luder" "blue" "degradated" "underlined" "259" NA
552.662 2.542 19636707 "Exp.Trial" "MASKSCREEN_START_Korps_E_DEG_N_550" 101 "[[539,616,384,384]]" 101 "Korps" "blue" "degradated" "not underlined" "309" NA
557.289 2.366 19641334 "Exp.Trial" "MASKSCREEN_START_Kehle_E_DEG_N_277" 102 "[[266,343,384,384]]" 102 "Kehle" "blue" "degradated" "not underlined" "319" NA
562.034 1.838 19646079 "Exp.Trial" "MASKSCREEN_START_Fülle_E_DEG_U_290" 103 "[[279,356,384,384]]" 103 "Fülle" "blue" "degradated" "underlined" "271" NA
566.077 1.725 19650122 "Exp.Trial" "MASKSCREEN_START_Votum_E_DEG_N_265" 104 "[[254,331,384,384]]" 104 "Votum" "blue" "degradated" "not underlined" "317" NA
569.297 2.689 19653342 "Exp.Trial" "MASKSCREEN_START_Abgas_K_DEG_N_252" 105 "[[241,318,384,384]]" 105 "Abgas" "black" "degradated" "not underlined" "138" 0
577.522 1.594 19661567 "Exp.Trial" "MASKSCREEN_START_Onkel_K_LET_U_228" 106 "[[217,294,384,384]]" 106 "Onkel" "black" "non-degradated" "underlined" "35" NA
580.641 2.361 19664686 "Exp.Trial" "MASKSCREEN_START_Trott_E_LET_U_339" 107 "[[328,405,384,384]]" 107 "Trott" "blue" "non-degradated" "underlined" "194" NA
584.518 1.631 19668563 "Exp.Trial" "MASKSCREEN_START_Feder_E_LET_N_314" 108 "[[303,380,384,384]]" 108 "Feder" "blue" "non-degradated" "not underlined" "231" NA
588.548 3.376 19672593 "Exp.Trial" "MASKSCREEN_START_Zucht_K_DEG_U_314" 109 "[[303,380,384,384]]" 109 "Zucht" "black" "degradated" "underlined" "111" NA
593.327 2.997 19677372 "Exp.Trial" "MASKSCREEN_START_Chrom_E_LET_N_277" 110 "[[266,343,384,384]]" 110 "Chrom" "blue" "non-degradated" "not underlined" "213" NA
597.874 1.943 19681919 "Exp.Trial" "MASKSCREEN_START_Rinde_K_DEG_N_314" 111 "[[303,380,384,384]]" 111 "Rinde" "black" "degradated" "not underlined" "148" NA
602.462 2.566 19686507 "Exp.Trial" "MASKSCREEN_START_Manko_E_LET_U_265" 112 "[[254,331,384,384]]" 112 "Manko" "blue" "non-degradated" "underlined" "173" NA
607.189 1.989 19691234 "Exp.Trial" "MASKSCREEN_START_Klima_K_DEG_N_252" 113 "[[241,318,384,384]]" 113 "Klima" "black" "degradated" "not underlined" "141" NA
612.598 1.664 19696643 "Exp.Trial" "MASKSCREEN_START_Nugat_K_LET_N_265" 114 "[[254,331,384,384]]" 114 "Nugat" "black" "non-degradated" "not underlined" "55" NA
616.734 1.655 19700779 "Exp.Trial" "MASKSCREEN_START_Spore_K_LET_N_339" 115 "[[328,405,384,384]]" 115 "Spore" "black" "non-degradated" "not underlined" "42" NA
620.473 1.928 19704518 "Exp.Trial" "MASKSCREEN_START_Pfand_E_LET_N_414" 116 "[[403,480,384,384]]" 116 "Pfand" "blue" "non-degradated" "not underlined" "201" NA
623.997 2.793 19708042 "Exp.Trial" "MASKSCREEN_START_Sehne_K_LET_U_376" 117 "[[365,442,384,384]]" 117 "Sehne" "black" "non-degradated" "underlined" "26" NA
628.323 2.141 19712368 "Exp.Trial" "MASKSCREEN_START_Szene_K_LET_U_240" 118 "[[229,306,384,384]]" 118 "Szene" "black" "non-degradated" "underlined" "23" NA
633.063 1.628 19717108 "Exp.Trial" "MASKSCREEN_START_Drama_E_DEG_N_290" 119 "[[279,356,384,384]]" 119 "Drama" "blue" "degradated" "not underlined" "314" NA
637.188 1.458 19721233 "Exp.Trial" "MASKSCREEN_START_Vogel_E_LET_N_228" 120 "[[217,294,384,384]]" 120 "Vogel" "blue" "non-degradated" "not underlined" "206" NA
641.031 1.662 19725076 "Exp.Trial" "MASKSCREEN_START_Datei_K_DEG_N_277" 121 "[[266,343,384,384]]" 121 "Datei" "black" "degradated" "not underlined" "140" NA
644.7 1.813 19728745 "Exp.Trial" "MASKSCREEN_START_Knabe_K_LET_U_252" 122 "[[241,318,384,384]]" 122 "Knabe" "black" "non-degradated" "underlined" "1" NA
648.671 1.72 19732716 "Exp.Trial" "MASKSCREEN_START_Thron_E_DEG_N_203" 123 "[[192,269,384,384]]" 123 "Thron" "blue" "degradated" "not underlined" "307" NA
652.082 1.891 19736127 "Exp.Trial" "MASKSCREEN_START_Party_E_LET_U_376" 124 "[[365,442,384,384]]" 124 "Party" "blue" "non-degradated" "underlined" "184" NA
655.98 1.581 19740025 "Exp.Trial" "MASKSCREEN_START_Münze_K_DEG_U_352" 125 "[[341,418,384,384]]" 125 "Münze" "black" "degradated" "underlined" "94" NA
659.543 1.847 19743588 "Exp.Trial" "MASKSCREEN_START_Radar_E_DEG_N_228" 126 "[[217,294,384,384]]" 126 "Radar" "blue" "degradated" "not underlined" "306" NA
664.025 1.437 19748070 "Exp.Trial" "MASKSCREEN_START_Wolle_K_DEG_N_376" 127 "[[365,442,384,384]]" 127 "Wolle" "black" "degradated" "not underlined" "159" NA
667.602 2.11 19751647 "Exp.Trial" "MASKSCREEN_START_Felge_K_DEG_N_401" 128 "[[390,467,384,384]]" 128 "Felge" "black" "degradated" "not underlined" "160" NA
671.221 2.089 19755266 "Exp.Trial" "MASKSCREEN_START_Daune_K_DEG_U_327" 129 "[[316,393,384,384]]" 129 "Daune" "black" "degradated" "underlined" "110" NA
674.812 2.131 19758857 "Exp.Trial" "MASKSCREEN_START_Beleg_E_LET_N_327" 130 "[[316,393,384,384]]" 130 "Beleg" "blue" "non-degradated" "not underlined" "212" NA
679.292 1.785 19763337 "Exp.Trial" "MASKSCREEN_START_Jubel_K_LET_U_240" 131 "[[229,306,384,384]]" 131 "Jubel" "black" "non-degradated" "underlined" "12" 0
686.209 1.87 19770254 "Exp.Trial" "MASKSCREEN_START_Zwerg_K_DEG_U_252" 132 "[[241,318,384,384]]" 132 "Zwerg" "black" "degradated" "underlined" "93" NA
689.601 1.683 19773646 "Exp.Trial" "MASKSCREEN_START_Geist_K_DEG_N_277" 133 "[[266,343,384,384]]" 133 "Geist" "black" "degradated" "not underlined" "134" NA
693.372 1.963 19777417 "Exp.Trial" "MASKSCREEN_START_Heber_E_DEG_N_525" 134 "[[514,591,384,384]]" 134 "Heber" "blue" "degradated" "not underlined" "292" NA
696.963 1.721 19781008 "Exp.Trial" "MASKSCREEN_START_Ruder_E_LET_N_252" 135 "[[241,318,384,384]]" 135 "Ruder" "blue" "non-degradated" "not underlined" "228" NA
700.123 2.467 19784168 "Exp.Trial" "MASKSCREEN_START_Wanst_E_DEG_N_476" 136 "[[465,542,384,384]]" 136 "Wanst" "blue" "degradated" "not underlined" "297" NA
703.966 1.94 19788011 "Exp.Trial" "MASKSCREEN_START_Laich_K_DEG_U_327" 137 "[[316,393,384,384]]" 137 "Laich" "black" "degradated" "underlined" "113" NA
707.392 2.919 19791437 "Exp.Trial" "MASKSCREEN_START_Masse_K_LET_N_228" 138 "[[217,294,384,384]]" 138 "Masse" "black" "non-degradated" "not underlined" "50" NA
711.966 1.509 19796011 "Exp.Trial" "MASKSCREEN_START_Würde_K_DEG_U_376" 139 "[[365,442,384,384]]" 139 "Würde" "black" "degradated" "underlined" "104" NA
716.102 1.889 19800147 "Exp.Trial" "MASKSCREEN_START_Etage_E_DEG_U_228" 140 "[[217,294,384,384]]" 140 "Etage" "blue" "degradated" "underlined" "260" 0
725.973 1.504 19810018 "Exp.Trial" "MASKSCREEN_START_Herde_E_LET_N_277" 141 "[[266,343,384,384]]" 141 "Herde" "blue" "non-degradated" "not underlined" "204" NA
730.918 1.827 19814963 "Exp.Trial" "MASKSCREEN_START_Kolik_E_DEG_U_302" 142 "[[291,368,384,384]]" 142 "Kolik" "blue" "degradated" "underlined" "253" NA
734.734 1.898 19818779 "Exp.Trial" "MASKSCREEN_START_Quart_K_DEG_N_414" 143 "[[403,480,384,384]]" 143 "Quart" "black" "degradated" "not underlined" "146" NA
738.167 2.606 19822212 "Exp.Trial" "MASKSCREEN_START_Sitte_K_DEG_N_290" 144 "[[279,356,384,384]]" 144 "Sitte" "black" "degradated" "not underlined" "151" NA
743.386 2.234 19827431 "Exp.Trial" "MASKSCREEN_START_Weber_K_LET_U_339" 145 "[[328,405,384,384]]" 145 "Weber" "black" "non-degradated" "underlined" "38" 0
751.729 2.697 19835774 "Exp.Trial" "MASKSCREEN_START_Miliz_K_DEG_U_290" 146 "[[279,356,384,384]]" 146 "Miliz" "black" "degradated" "underlined" "120" NA
756.063 1.75 19840108 "Exp.Trial" "MASKSCREEN_START_Phase_K_LET_N_228" 147 "[[217,294,384,384]]" 147 "Phase" "black" "non-degradated" "not underlined" "69" NA
759.476 1.939 19843521 "Exp.Trial" "MASKSCREEN_START_Säule_K_DEG_N_302" 148 "[[291,368,384,384]]" 148 "Säule" "black" "degradated" "not underlined" "126" 0
767.813 2.627 19851858 "Exp.Trial" "MASKSCREEN_START_Wange_E_DEG_U_401" 149 "[[390,467,384,384]]" 149 "Wange" "blue" "degradated" "underlined" "256" NA
771.876 2.292 19855921 "Exp.Trial" "MASKSCREEN_START_Sturz_E_LET_N_228" 150 "[[217,294,384,384]]" 150 "Sturz" "blue" "non-degradated" "not underlined" "219" NA
777.134 1.841 19861179 "Exp.Trial" "MASKSCREEN_START_Beute_E_LET_U_389" 151 "[[378,455,384,384]]" 151 "Beute" "blue" "non-degradated" "underlined" "169" NA
780.453 1.742 19864498 "Exp.Trial" "MASKSCREEN_START_Miene_K_DEG_N_265" 152 "[[254,331,384,384]]" 152 "Miene" "black" "degradated" "not underlined" "155" NA
784.422 1.717 19868467 "Exp.Trial" "MASKSCREEN_START_Depot_K_DEG_N_252" 153 "[[241,318,384,384]]" 153 "Depot" "black" "degradated" "not underlined" "135" NA
788.552 2.026 19872597 "Exp.Trial" "MASKSCREEN_START_Pferd_E_DEG_N_228" 154 "[[217,294,384,384]]" 154 "Pferd" "blue" "degradated" "not underlined" "282" 0
797.192 1.309 19881237 "Exp.Trial" "MASKSCREEN_START_Natur_E_DEG_U_265" 155 "[[254,331,384,384]]" 155 "Natur" "blue" "degradated" "underlined" "246" NA
800.804 1.959 19884849 "Exp.Trial" "MASKSCREEN_START_Zobel_K_DEG_N_290" 156 "[[279,356,384,384]]" 156 "Zobel" "black" "degradated" "not underlined" "158" NA
804.317 2.529 19888362 "Exp.Trial" "MASKSCREEN_START_Organ_E_DEG_N_339" 157 "[[328,405,384,384]]" 157 "Organ" "blue" "degradated" "not underlined" "305" NA
809.096 2.258 19893141 "Exp.Trial" "MASKSCREEN_START_Abzug_K_DEG_N_240" 158 "[[229,306,384,384]]" 158 "Abzug" "black" "degradated" "not underlined" "130" NA
813.392 3.04 19897437 "Exp.Trial" "MASKSCREEN_START_Ungar_K_DEG_U_327" 159 "[[316,393,384,384]]" 159 "Ungar" "black" "degradated" "underlined" "95" NA
817.972 2.667 19902017 "Exp.Trial" "MASKSCREEN_START_Kunde_K_LET_U_228" 160 "[[217,294,384,384]]" 160 "Kunde" "black" "non-degradated" "underlined" "20" NA
822.314 1.213 19906359 "Exp.Trial" "MASKSCREEN_START_Pilot_K_DEG_N_265" 161 "[[254,331,384,384]]" 161 "Pilot" "black" "degradated" "not underlined" "132" NA
825.214 2.066 19909259 "Exp.Trial" "MASKSCREEN_START_Kiste_E_LET_U_401" 162 "[[390,467,384,384]]" 162 "Kiste" "blue" "non-degradated" "underlined" "187" NA
828.706 2.139 19912751 "Exp.Trial" "MASKSCREEN_START_König_E_LET_U_550" 163 "[[539,616,384,384]]" 163 "König" "blue" "non-degradated" "underlined" "178" 0
837.216 2.701 19921261 "Exp.Trial" "MASKSCREEN_START_Erlös_K_LET_N_476" 164 "[[465,542,384,384]]" 164 "Erlös" "black" "non-degradated" "not underlined" "47" 0
847.312 1.742 19931357 "Exp.Trial" "MASKSCREEN_START_Genre_E_DEG_U_228" 165 "[[217,294,384,384]]" 165 "Genre" "blue" "degradated" "underlined" "249" NA
851.461 2.259 19935506 "Exp.Trial" "MASKSCREEN_START_Raupe_K_DEG_N_339" 166 "[[328,405,384,384]]" 166 "Raupe" "black" "degradated" "not underlined" "153" NA
856.766 2.2 19940811 "Exp.Trial" "MASKSCREEN_START_Fjord_E_DEG_N_414" 167 "[[403,480,384,384]]" 167 "Fjord" "blue" "degradated" "not underlined" "283" 0
865.302 1.858 19949347 "Exp.Trial" "MASKSCREEN_START_Waage_E_DEG_U_302" 168 "[[291,368,384,384]]" 168 "Waage" "blue" "degradated" "underlined" "255" 0
873.281 1.696 19957326 "Exp.Trial" "MASKSCREEN_START_Yacht_K_LET_U_215" 169 "[[204,281,384,384]]" 169 "Yacht" "black" "non-degradated" "underlined" "28" NA
880.776 1.995 19964821 "Exp.Trial" "MASKSCREEN_START_Falle_E_DEG_U_339" 170 "[[328,405,384,384]]" 170 "Falle" "blue" "degradated" "underlined" "244" NA
885.052 2.266 19969097 "Exp.Trial" "MASKSCREEN_START_Beuge_K_LET_N_426" 171 "[[415,492,384,384]]" 171 "Beuge" "black" "non-degradated" "not underlined" "73" NA
889.997 1.825 19974042 "Exp.Trial" "MASKSCREEN_START_Pfahl_E_LET_U_240" 172 "[[229,306,384,384]]" 172 "Pfahl" "blue" "non-degradated" "underlined" "189" 0
898.104 1.718 19982149 "Exp.Trial" "MASKSCREEN_START_Zicke_E_LET_U_252" 173 "[[241,318,384,384]]" 173 "Zicke" "blue" "non-degradated" "underlined" "183" NA
901.819 2.152 19985864 "Exp.Trial" "MASKSCREEN_START_Pizza_E_LET_N_277" 174 "[[266,343,384,384]]" 174 "Pizza" "blue" "non-degradated" "not underlined" "211" NA
907.674 1.676 19991719 "Exp.Trial" "MASKSCREEN_START_Gerät_K_DEG_U_277" 175 "[[266,343,384,384]]" 175 "Gerät" "black" "degradated" "underlined" "119" NA
911.199 2.037 19995244 "Exp.Trial" "MASKSCREEN_START_Sense_K_LET_N_252" 176 "[[241,318,384,384]]" 176 "Sense" "black" "non-degradated" "not underlined" "44" NA
915.846 1.68 19999891 "Exp.Trial" "MASKSCREEN_START_Viper_K_LET_U_364" 177 "[[353,430,384,384]]" 177 "Viper" "black" "non-degradated" "underlined" "19" NA
919.835 1.481 20003880 "Exp.Trial" "MASKSCREEN_START_Eifer_K_DEG_U_376" 178 "[[365,442,384,384]]" 178 "Eifer" "black" "degradated" "underlined" "84" NA
923.726 1.489 20007771 "Exp.Trial" "MASKSCREEN_START_Modul_K_DEG_N_513" 179 "[[502,579,384,384]]" 179 "Modul" "black" "degradated" "not underlined" "127" NA
927.443 1.798 20011488 "Exp.Trial" "MASKSCREEN_START_Linse_E_LET_U_215" 180 "[[204,281,384,384]]" 180 "Linse" "blue" "non-degradated" "underlined" "162" NA
931.679 2.361 20015724 "Exp.Trial" "MASKSCREEN_START_Zuzug_K_DEG_U_327" 181 "[[316,393,384,384]]" 181 "Zuzug" "black" "degradated" "underlined" "106" 0
942.159 1.811 20026204 "Exp.Trial" "MASKSCREEN_START_Gebet_K_DEG_N_339" 182 "[[328,405,384,384]]" 182 "Gebet" "black" "degradated" "not underlined" "156" NA
945.532 2.096 20029577 "Exp.Trial" "MASKSCREEN_START_Kakao_E_LET_N_525" 183 "[[514,591,384,384]]" 183 "Kakao" "blue" "non-degradated" "not underlined" "208" NA
950.391 1.703 20034436 "Exp.Trial" "MASKSCREEN_START_Feger_E_DEG_N_240" 184 "[[229,306,384,384]]" 184 "Feger" "blue" "degradated" "not underlined" "285" NA
954.461 1.329 20038506 "Exp.Trial" "MASKSCREEN_START_Anruf_K_DEG_U_376" 185 "[[365,442,384,384]]" 185 "Anruf" "black" "degradated" "underlined" "91" NA
957.786 2.114 20041831 "Exp.Trial" "MASKSCREEN_START_Heide_E_LET_U_376" 186 "[[365,442,384,384]]" 186 "Heide" "blue" "non-degradated" "underlined" "191" NA
961.464 2.123 20045509 "Exp.Trial" "MASKSCREEN_START_Bogen_E_LET_N_401" 187 "[[390,467,384,384]]" 187 "Bogen" "blue" "non-degradated" "not underlined" "221" NA
965.952 2.041 20049997 "Exp.Trial" "MASKSCREEN_START_Lauge_E_LET_N_240" 188 "[[229,306,384,384]]" 188 "Lauge" "blue" "non-degradated" "not underlined" "236" NA
969.555 1.476 20053600 "Exp.Trial" "MASKSCREEN_START_Weihe_E_DEG_U_401" 189 "[[390,467,384,384]]" 189 "Weihe" "blue" "degradated" "underlined" "264" NA
972.451 1.637 20056496 "Exp.Trial" "MASKSCREEN_START_Runde_K_DEG_U_228" 190 "[[217,294,384,384]]" 190 "Runde" "black" "degradated" "underlined" "108" NA
975.789 1.653 20059834 "Exp.Trial" "MASKSCREEN_START_Stola_K_DEG_N_352" 191 "[[341,418,384,384]]" 191 "Stola" "black" "degradated" "not underlined" "124" 0
983.286 2.897 20067331 "Exp.Trial" "MASKSCREEN_START_Kreml_E_LET_N_488" 192 "[[477,554,384,384]]" 192 "Kreml" "blue" "non-degradated" "not underlined" "222" NA
987.778 1.868 20071823 "Exp.Trial" "MASKSCREEN_START_Abruf_K_LET_N_389" 193 "[[378,455,384,384]]" 193 "Abruf" "black" "non-degradated" "not underlined" "71" NA
991.197 1.632 20075242 "Exp.Trial" "MASKSCREEN_START_Druck_K_LET_N_252" 194 "[[241,318,384,384]]" 194 "Druck" "black" "non-degradated" "not underlined" "75" NA
995.112 1.751 20079157 "Exp.Trial" "MASKSCREEN_START_Lachs_K_LET_U_352" 195 "[[341,418,384,384]]" 195 "Lachs" "black" "non-degradated" "underlined" "24" 0
1002.177 2.071 20086222 "Exp.Trial" "MASKSCREEN_START_Probe_K_DEG_U_240" 196 "[[229,306,384,384]]" 196 "Probe" "black" "degradated" "underlined" "117" NA
1006.146 1.484 20090191 "Exp.Trial" "MASKSCREEN_START_Polio_K_DEG_U_364" 197 "[[353,430,384,384]]" 197 "Polio" "black" "degradated" "underlined" "103" NA
1009.24 1.621 20093285 "Exp.Trial" "MASKSCREEN_START_Hecke_E_LET_N_228" 198 "[[217,294,384,384]]" 198 "Hecke" "blue" "non-degradated" "not underlined" "230" NA
1012.792 1.7 20096837 "Exp.Trial" "MASKSCREEN_START_Gicht_K_LET_U_401" 199 "[[390,467,384,384]]" 199 "Gicht" "black" "non-degradated" "underlined" "33" NA
1016.703 1.481 20100748 "Exp.Trial" "MASKSCREEN_START_Figur_E_LET_N_364" 200 "[[353,430,384,384]]" 200 "Figur" "blue" "non-degradated" "not underlined" "232" NA
1019.954 2.099 20103999 "Exp.Trial" "MASKSCREEN_START_Trupp_E_DEG_U_240" 201 "[[229,306,384,384]]" 201 "Trupp" "blue" "degradated" "underlined" "262" NA
1023.837 1.26 20107882 "Exp.Trial" "MASKSCREEN_START_Taube_K_LET_N_290" 202 "[[279,356,384,384]]" 202 "Taube" "black" "non-degradated" "not underlined" "41" NA
1027.211 1.852 20111256 "Exp.Trial" "MASKSCREEN_START_Pirat_K_DEG_N_215" 203 "[[204,281,384,384]]" 203 "Pirat" "black" "degradated" "not underlined" "133" NA
1030.673 2.576 20114718 "Exp.Trial" "MASKSCREEN_START_Markt_K_LET_N_302" 204 "[[291,368,384,384]]" 204 "Markt" "black" "non-degradated" "not underlined" "74" NA
1035.341 2.081 20119386 "Exp.Trial" "MASKSCREEN_START_China_E_DEG_U_302" 205 "[[291,368,384,384]]" 205 "China" "blue" "degradated" "underlined" "257" NA
1039.173 1.338 20123218 "Exp.Trial" "MASKSCREEN_START_Klotz_K_DEG_N_252" 206 "[[241,318,384,384]]" 206 "Klotz" "black" "degradated" "not underlined" "136" NA
1042.086 1.618 20126131 "Exp.Trial" "MASKSCREEN_START_Spott_E_LET_U_265" 207 "[[254,331,384,384]]" 207 "Spott" "blue" "non-degradated" "underlined" "180" NA
1046.301 2.147 20130346 "Exp.Trial" "MASKSCREEN_START_Feile_E_LET_U_302" 208 "[[291,368,384,384]]" 208 "Feile" "blue" "non-degradated" "underlined" "185" 0
1054.366 1.964 20138411 "Exp.Trial" "MASKSCREEN_START_Plage_K_LET_N_240" 209 "[[229,306,384,384]]" 209 "Plage" "black" "non-degradated" "not underlined" "54" NA
1057.992 2.052 20142037 "Exp.Trial" "MASKSCREEN_START_Getön_E_LET_U_265" 210 "[[254,331,384,384]]" 210 "Getön" "blue" "non-degradated" "underlined" "175" NA
1062.206 1.994 20146251 "Exp.Trial" "MASKSCREEN_START_Villa_E_LET_N_314" 211 "[[303,380,384,384]]" 211 "Villa" "blue" "non-degradated" "not underlined" "240" NA
1065.658 2.048 20149703 "Exp.Trial" "MASKSCREEN_START_Tulpe_E_DEG_U_500" 212 "[[489,566,384,384]]" 212 "Tulpe" "blue" "degradated" "underlined" "245" NA
1069.262 2.127 20153307 "Exp.Trial" "MASKSCREEN_START_Panne_E_DEG_U_252" 213 "[[241,318,384,384]]" 213 "Panne" "blue" "degradated" "underlined" "276" NA
1072.987 1.594 20157032 "Exp.Trial" "MASKSCREEN_START_Nagel_K_LET_N_376" 214 "[[365,442,384,384]]" 214 "Nagel" "black" "non-degradated" "not underlined" "65" NA
1077.043 1.393 20161088 "Exp.Trial" "MASKSCREEN_START_Messe_E_DEG_N_240" 215 "[[229,306,384,384]]" 215 "Messe" "blue" "degradated" "not underlined" "310" NA
1080.807 2.556 20164852 "Exp.Trial" "MASKSCREEN_START_Drill_K_DEG_N_339" 216 "[[328,405,384,384]]" 216 "Drill" "black" "degradated" "not underlined" "128" NA
1084.921 1.539 20168966 "Exp.Trial" "MASKSCREEN_START_Lücke_K_LET_N_327" 217 "[[316,393,384,384]]" 217 "Lücke" "black" "non-degradated" "not underlined" "80" NA
1088.4 1.453 20172445 "Exp.Trial" "MASKSCREEN_START_Bombe_K_DEG_N_265" 218 "[[254,331,384,384]]" 218 "Bombe" "black" "degradated" "not underlined" "129" NA
1091.52 2.122 20175565 "Exp.Trial" "MASKSCREEN_START_Atoll_K_DEG_U_513" 219 "[[502,579,384,384]]" 219 "Atoll" "black" "degradated" "underlined" "98" NA
1095.238 1.681 20179283 "Exp.Trial" "MASKSCREEN_START_Gecko_E_DEG_U_314" 220 "[[303,380,384,384]]" 220 "Gecko" "blue" "degradated" "underlined" "268" 0
1102.74 1.359 20186785 "Exp.Trial" "MASKSCREEN_START_Kette_E_LET_U_252" 221 "[[241,318,384,384]]" 221 "Kette" "blue" "non-degradated" "underlined" "199" NA
1105.6 1.471 20189645 "Exp.Trial" "MASKSCREEN_START_Übung_K_DEG_U_228" 222 "[[217,294,384,384]]" 222 "Übung" "black" "degradated" "underlined" "100" NA
1109.272 1.578 20193317 "Exp.Trial" "MASKSCREEN_START_Hocke_E_DEG_N_265" 223 "[[254,331,384,384]]" 223 "Hocke" "blue" "degradated" "not underlined" "308" NA
1112.384 1.861 20196429 "Exp.Trial" "MASKSCREEN_START_Moder_K_DEG_U_265" 224 "[[254,331,384,384]]" 224 "Moder" "black" "degradated" "underlined" "97" 0
1120.88 2.061 20204925 "Exp.Trial" "MASKSCREEN_START_Hagel_E_LET_N_438" 225 "[[427,504,384,384]]" 225 "Hagel" "blue" "non-degradated" "not underlined" "227" 0
1128.336 1.758 20212381 "Exp.Trial" "MASKSCREEN_START_Stern_E_LET_N_228" 226 "[[217,294,384,384]]" 226 "Stern" "blue" "non-degradated" "not underlined" "237" NA
1132.81 2.039 20216855 "Exp.Trial" "MASKSCREEN_START_Rispe_E_DEG_U_376" 227 "[[365,442,384,384]]" 227 "Rispe" "blue" "degradated" "underlined" "275" NA
1136.422 1.599 20220467 "Exp.Trial" "MASKSCREEN_START_Rippe_K_LET_N_327" 228 "[[316,393,384,384]]" 228 "Rippe" "black" "non-degradated" "not underlined" "56" NA
1140.61 1.813 20224655 "Exp.Trial" "MASKSCREEN_START_Kokon_K_LET_N_228" 229 "[[217,294,384,384]]" 229 "Kokon" "black" "non-degradated" "not underlined" "52" NA
1144.759 2.019 20228804 "Exp.Trial" "MASKSCREEN_START_Teint_E_LET_N_302" 230 "[[291,368,384,384]]" 230 "Teint" "blue" "non-degradated" "not underlined" "229" 0
1153.032 2.029 20237077 "Exp.Trial" "MASKSCREEN_START_Armee_E_DEG_N_290" 231 "[[279,356,384,384]]" 231 "Armee" "blue" "degradated" "not underlined" "284" NA
1156.714 2.423 20240759 "Exp.Trial" "MASKSCREEN_START_Orbit_E_DEG_N_228" 232 "[[217,294,384,384]]" 232 "Orbit" "blue" "degradated" "not underlined" "287" 0
1169.022 1.961 20253067 "Exp.Trial" "MASKSCREEN_START_Fötus_E_DEG_N_352" 233 "[[341,418,384,384]]" 233 "Fötus" "blue" "degradated" "not underlined" "289" NA
1174 1.901 20258045 "Exp.Trial" "MASKSCREEN_START_Motiv_K_LET_U_290" 234 "[[279,356,384,384]]" 234 "Motiv" "black" "non-degradated" "underlined" "13" NA
1177.572 2.035 20261617 "Exp.Trial" "MASKSCREEN_START_Boxer_E_DEG_N_314" 235 "[[303,380,384,384]]" 235 "Boxer" "blue" "degradated" "not underlined" "313" NA
1181.993 2.229 20266038 "Exp.Trial" "MASKSCREEN_START_Polka_K_DEG_U_525" 236 "[[514,591,384,384]]" 236 "Polka" "black" "degradated" "underlined" "102" NA
1186.09 2.609 20270135 "Exp.Trial" "MASKSCREEN_START_Axiom_K_LET_U_364" 237 "[[353,430,384,384]]" 237 "Axiom" "black" "non-degradated" "underlined" "27" NA
1190.442 1.716 20274487 "Exp.Trial" "MASKSCREEN_START_Belag_E_LET_N_252" 238 "[[241,318,384,384]]" 238 "Belag" "blue" "non-degradated" "not underlined" "218" NA
1193.842 2.077 20277887 "Exp.Trial" "MASKSCREEN_START_Lehne_E_LET_N_401" 239 "[[390,467,384,384]]" 239 "Lehne" "blue" "non-degradated" "not underlined" "224" NA
1197.838 1.983 20281883 "Exp.Trial" "MASKSCREEN_START_Lunge_K_DEG_U_476" 240 "[[465,542,384,384]]" 240 "Lunge" "black" "degradated" "underlined" "81" NA
1201.409 1.699 20285454 "Exp.Trial" "MASKSCREEN_START_Raser_K_LET_U_290" 241 "[[279,356,384,384]]" 241 "Raser" "black" "non-degradated" "underlined" "3" 0
1208.447 2.497 20292492 "Exp.Trial" "MASKSCREEN_START_Blitz_K_DEG_N_575" 242 "[[564,641,384,384]]" 242 "Blitz" "black" "degradated" "not underlined" "121" NA
1212.508 1.531 20296553 "Exp.Trial" "MASKSCREEN_START_Mango_E_DEG_N_228" 243 "[[217,294,384,384]]" 243 "Mango" "blue" "degradated" "not underlined" "286" NA
1218.444 2.4 20302489 "Exp.Trial" "MASKSCREEN_START_Müsli_E_LET_N_426" 244 "[[415,492,384,384]]" 244 "Müsli" "blue" "non-degradated" "not underlined" "210" NA
1223.477 3.024 20307522 "Exp.Trial" "MASKSCREEN_START_Ärmel_K_LET_N_376" 245 "[[365,442,384,384]]" 245 "Ärmel" "black" "non-degradated" "not underlined" "76" NA
1228.746 1.863 20312791 "Exp.Trial" "MASKSCREEN_START_Kleid_E_DEG_N_228" 246 "[[217,294,384,384]]" 246 "Kleid" "blue" "degradated" "not underlined" "281" NA
1233.214 1.421 20317259 "Exp.Trial" "MASKSCREEN_START_Minze_E_DEG_N_252" 247 "[[241,318,384,384]]" 247 "Minze" "blue" "degradated" "not underlined" "303" NA
1236.586 1.74 20320631 "Exp.Trial" "MASKSCREEN_START_Wärme_K_LET_U_252" 248 "[[241,318,384,384]]" 248 "Wärme" "black" "non-degradated" "underlined" "21" 0
1244.287 2.459 20328332 "Exp.Trial" "MASKSCREEN_START_Leere_E_DEG_N_600" 249 "[[589,666,384,384]]" 249 "Leere" "blue" "degradated" "not underlined" "290" NA
1248.344 1.42 20332389 "Exp.Trial" "MASKSCREEN_START_Paket_K_LET_N_352" 250 "[[341,418,384,384]]" 250 "Paket" "black" "non-degradated" "not underlined" "77" NA
1252.266 2.42 20336311 "Exp.Trial" "MASKSCREEN_START_Viola_E_LET_N_302" 251 "[[291,368,384,384]]" 251 "Viola" "blue" "non-degradated" "not underlined" "217" NA
1256.407 2.215 20340452 "Exp.Trial" "MASKSCREEN_START_Gramm_E_DEG_U_538" 252 "[[527,604,384,384]]" 252 "Gramm" "blue" "degradated" "underlined" "279" NA
1260.616 3.575 20344661 "Exp.Trial" "MASKSCREEN_START_Sühne_K_LET_U_748" 253 "[[737,814,384,384]]" 253 "Sühne" "black" "non-degradated" "underlined" "18" NA
1265.828 2.131 20349873 "Exp.Trial" "MASKSCREEN_START_Sippe_E_LET_U_414" 254 "[[403,480,384,384]]" 254 "Sippe" "blue" "non-degradated" "underlined" "188" NA
1270.155 2.886 20354200 "Exp.Trial" "MASKSCREEN_START_Liste_K_DEG_U_426" 255 "[[415,492,384,384]]" 255 "Liste" "black" "degradated" "underlined" "99" 0
1280.744 1.65 20364789 "Exp.Trial" "MASKSCREEN_START_Stamm_E_DEG_U_414" 256 "[[403,480,384,384]]" 256 "Stamm" "blue" "degradated" "underlined" "274" NA
1284.354 1.844 20368399 "Exp.Trial" "MASKSCREEN_START_Ratte_K_LET_N_339" 257 "[[328,405,384,384]]" 257 "Ratte" "black" "non-degradated" "not underlined" "49" NA
1287.726 2.181 20371771 "Exp.Trial" "MASKSCREEN_START_Matte_K_DEG_N_240" 258 "[[229,306,384,384]]" 258 "Matte" "black" "degradated" "not underlined" "143" 0
1295.175 1.566 20379220 "Exp.Trial" "MASKSCREEN_START_Beule_E_DEG_U_327" 259 "[[316,393,384,384]]" 259 "Beule" "blue" "degradated" "underlined" "266" NA
1298.357 2.473 20382402 "Exp.Trial" "MASKSCREEN_START_Griff_E_LET_N_364" 260 "[[353,430,384,384]]" 260 "Griff" "blue" "non-degradated" "not underlined" "225" NA
1302.887 1.525 20386932 "Exp.Trial" "MASKSCREEN_START_Abend_K_LET_U_252" 261 "[[241,318,384,384]]" 261 "Abend" "black" "non-degradated" "underlined" "7" 0
1309.421 2.375 20393466 "Exp.Trial" "MASKSCREEN_START_Malve_E_DEG_U_339" 262 "[[328,405,384,384]]" 262 "Malve" "blue" "degradated" "underlined" "241" NA
1313.47 2.475 20397515 "Exp.Trial" "MASKSCREEN_START_Kluft_E_DEG_U_277" 263 "[[266,343,384,384]]" 263 "Kluft" "blue" "degradated" "underlined" "258" NA
1318.689 1.751 20402734 "Exp.Trial" "MASKSCREEN_START_Musik_E_LET_U_438" 264 "[[427,504,384,384]]" 264 "Musik" "blue" "non-degradated" "underlined" "200" NA
1322.75 1.786 20406795 "Exp.Trial" "MASKSCREEN_START_Slawe_E_LET_U_277" 265 "[[266,343,384,384]]" 265 "Slawe" "blue" "non-degradated" "underlined" "171" NA
1326.462 2.514 20410507 "Exp.Trial" "MASKSCREEN_START_Würze_E_DEG_U_277" 266 "[[266,343,384,384]]" 266 "Würze" "blue" "degradated" "underlined" "263" NA
1330.576 2.317 20414621 "Exp.Trial" "MASKSCREEN_START_Spreu_E_LET_U_364" 267 "[[353,430,384,384]]" 267 "Spreu" "blue" "non-degradated" "underlined" "161" NA
1334.885 2.119 20418930 "Exp.Trial" "MASKSCREEN_START_Lager_K_DEG_N_228" 268 "[[217,294,384,384]]" 268 "Lager" "black" "degradated" "not underlined" "145" NA
1339.16 2.072 20423205 "Exp.Trial" "MASKSCREEN_START_Madam_K_LET_U_252" 269 "[[241,318,384,384]]" 269 "Madam" "black" "non-degradated" "underlined" "4" 0
1347.823 2.677 20431868 "Exp.Trial" "MASKSCREEN_START_Hüter_K_LET_N_215" 270 "[[204,281,384,384]]" 270 "Hüter" "black" "non-degradated" "not underlined" "66" NA
1352.089 2.452 20436134 "Exp.Trial" "MASKSCREEN_START_Union_K_LET_N_215" 271 "[[204,281,384,384]]" 271 "Union" "black" "non-degradated" "not underlined" "46" NA
1356.141 1.775 20440186 "Exp.Trial" "MASKSCREEN_START_Waffe_E_LET_U_389" 272 "[[378,455,384,384]]" 272 "Waffe" "blue" "non-degradated" "underlined" "174" NA
1360.422 1.95 20444467 "Exp.Trial" "MASKSCREEN_START_Mähre_E_LET_U_401" 273 "[[390,467,384,384]]" 273 "Mähre" "blue" "non-degradated" "underlined" "167" NA
1364.108 3.129 20448153 "Exp.Trial" "MASKSCREEN_START_Dekan_K_LET_U_265" 274 "[[254,331,384,384]]" 274 "Dekan" "black" "non-degradated" "underlined" "11" NA
1368.906 2.06 20452951 "Exp.Trial" "MASKSCREEN_START_Pedal_E_LET_N_314" 275 "[[303,380,384,384]]" 275 "Pedal" "blue" "non-degradated" "not underlined" "214" NA
1373.686 2.218 20457731 "Exp.Trial" "MASKSCREEN_START_Prinz_E_LET_U_265" 276 "[[254,331,384,384]]" 276 "Prinz" "blue" "non-degradated" "underlined" "166" NA
1378.87 1.25 20462915 "Exp.Trial" "MASKSCREEN_START_Twist_K_LET_N_314" 277 "[[303,380,384,384]]" 277 "Twist" "black" "non-degradated" "not underlined" "79" NA
1381.684 2.046 20465729 "Exp.Trial" "MASKSCREEN_START_Lauch_E_LET_U_500" 278 "[[489,566,384,384]]" 278 "Lauch" "blue" "non-degradated" "underlined" "197" 0
1390.042 2.192 20474087 "Exp.Trial" "MASKSCREEN_START_Zeile_K_DEG_U_277" 279 "[[266,343,384,384]]" 279 "Zeile" "black" "degradated" "underlined" "88" NA
1394.483 2.178 20478528 "Exp.Trial" "MASKSCREEN_START_Kugel_E_LET_U_314" 280 "[[303,380,384,384]]" 280 "Kugel" "blue" "non-degradated" "underlined" "186" NA
1398.718 2.418 20482763 "Exp.Trial" "MASKSCREEN_START_Quint_E_DEG_U_513" 281 "[[502,579,384,384]]" 281 "Quint" "blue" "degradated" "underlined" "265" NA
1402.729 3.626 20486774 "Exp.Trial" "MASKSCREEN_START_Quast_K_LET_N_550" 282 "[[539,616,384,384]]" 282 "Quast" "black" "non-degradated" "not underlined" "61" NA
1407.999 1.632 20492044 "Exp.Trial" "MASKSCREEN_START_Ritze_E_DEG_N_228" 283 "[[217,294,384,384]]" 283 "Ritze" "blue" "degradated" "not underlined" "318" NA
1411.696 1.814 20495741 "Exp.Trial" "MASKSCREEN_START_Klaps_K_LET_N_401" 284 "[[390,467,384,384]]" 284 "Klaps" "black" "non-degradated" "not underlined" "70" NA
1415.167 1.911 20499212 "Exp.Trial" "MASKSCREEN_START_Delta_K_DEG_N_302" 285 "[[291,368,384,384]]" 285 "Delta" "black" "degradated" "not underlined" "131" NA
1418.985 1.76 20503030 "Exp.Trial" "MASKSCREEN_START_These_K_LET_N_376" 286 "[[365,442,384,384]]" 286 "These" "black" "non-degradated" "not underlined" "53" NA
1422.676 2.005 20506721 "Exp.Trial" "MASKSCREEN_START_Aktie_E_DEG_U_265" 287 "[[254,331,384,384]]" 287 "Aktie" "blue" "degradated" "underlined" "248" NA
1426.732 2.025 20510777 "Exp.Trial" "MASKSCREEN_START_Troll_K_LET_N_426" 288 "[[415,492,384,384]]" 288 "Troll" "black" "non-degradated" "not underlined" "57" NA
1430.463 1.817 20514508 "Exp.Trial" "MASKSCREEN_START_Anbau_E_DEG_U_302" 289 "[[291,368,384,384]]" 289 "Anbau" "blue" "degradated" "underlined" "250" NA
1433.781 1.986 20517826 "Exp.Trial" "MASKSCREEN_START_Wüste_E_DEG_U_277" 290 "[[266,343,384,384]]" 290 "Wüste" "blue" "degradated" "underlined" "261" NA
1437.844 2.575 20521889 "Exp.Trial" "MASKSCREEN_START_Gusto_E_LET_N_476" 291 "[[465,542,384,384]]" 291 "Gusto" "blue" "non-degradated" "not underlined" "220" 0
1447.761 2.603 20531806 "Exp.Trial" "MASKSCREEN_START_Regie_K_DEG_U_327" 292 "[[316,393,384,384]]" 292 "Regie" "black" "degradated" "underlined" "116" NA
1452.017 2.501 20536062 "Exp.Trial" "MASKSCREEN_START_Sigma_E_LET_N_302" 293 "[[291,368,384,384]]" 293 "Sigma" "blue" "non-degradated" "not underlined" "234" 0
1460.879 2.218 20544924 "Exp.Trial" "MASKSCREEN_START_Strom_E_LET_U_240" 294 "[[229,306,384,384]]" 294 "Strom" "blue" "non-degradated" "underlined" "163" NA
1464.643 1.669 20548688 "Exp.Trial" "MASKSCREEN_START_Summe_K_DEG_N_265" 295 "[[254,331,384,384]]" 295 "Summe" "black" "degradated" "not underlined" "123" NA
1467.875 2.304 20551920 "Exp.Trial" "MASKSCREEN_START_Kuhle_K_LET_N_277" 296 "[[266,343,384,384]]" 296 "Kuhle" "black" "non-degradated" "not underlined" "45" 0
1475.523 1.514 20559568 "Exp.Trial" "MASKSCREEN_START_Zecke_E_LET_U_240" 297 "[[229,306,384,384]]" 297 "Zecke" "blue" "non-degradated" "underlined" "170" NA
1478.563 1.739 20562608 "Exp.Trial" "MASKSCREEN_START_Laken_E_DEG_N_228" 298 "[[217,294,384,384]]" 298 "Laken" "blue" "degradated" "not underlined" "298" NA
1482.499 2.895 20566544 "Exp.Trial" "MASKSCREEN_START_Fauna_K_LET_N_339" 299 "[[328,405,384,384]]" 299 "Fauna" "black" "non-degradated" "not underlined" "68" NA
1487.817 2.372 20571862 "Exp.Trial" "MASKSCREEN_START_Ahorn_E_LET_U_228" 300 "[[217,294,384,384]]" 300 "Ahorn" "blue" "non-degradated" "underlined" "193" NA
1491.754 2.52 20575799 "Exp.Trial" "MASKSCREEN_START_Tisch_K_LET_N_488" 301 "[[477,554,384,384]]" 301 "Tisch" "black" "non-degradated" "not underlined" "62" NA
1496.805 1.893 20580850 "Exp.Trial" "MASKSCREEN_START_Dogma_K_LET_N_352" 302 "[[341,418,384,384]]" 302 "Dogma" "black" "non-degradated" "not underlined" "67" NA
1500.21 1.724 20584255 "Exp.Trial" "MASKSCREEN_START_Zeder_E_DEG_N_265" 303 "[[254,331,384,384]]" 303 "Zeder" "blue" "degradated" "not underlined" "304" NA
1503.351 2.564 20587396 "Exp.Trial" "MASKSCREEN_START_Zitat_E_DEG_N_376" 304 "[[365,442,384,384]]" 304 "Zitat" "blue" "degradated" "not underlined" "311" NA
1508.376 2.236 20592421 "Exp.Trial" "MASKSCREEN_START_Juwel_K_DEG_N_426" 305 "[[415,492,384,384]]" 305 "Juwel" "black" "degradated" "not underlined" "142" NA
1512.777 2.139 20596822 "Exp.Trial" "MASKSCREEN_START_Achse_E_LET_U_252" 306 "[[241,318,384,384]]" 306 "Achse" "blue" "non-degradated" "underlined" "172" NA
1517.025 2.407 20601070 "Exp.Trial" "MASKSCREEN_START_Kerze_E_LET_U_277" 307 "[[266,343,384,384]]" 307 "Kerze" "blue" "non-degradated" "underlined" "165" NA
1521.585 1.979 20605630 "Exp.Trial" "MASKSCREEN_START_Stube_E_DEG_U_240" 308 "[[229,306,384,384]]" 308 "Stube" "blue" "degradated" "underlined" "273" NA
1525.442 1.801 20609487 "Exp.Trial" "MASKSCREEN_START_Treff_E_DEG_U_302" 309 "[[291,368,384,384]]" 309 "Treff" "blue" "degradated" "underlined" "270" NA
1528.762 1.664 20612807 "Exp.Trial" "MASKSCREEN_START_Äther_K_LET_U_451" 310 "[[440,517,384,384]]" 310 "Äther" "black" "non-degradated" "underlined" "34" NA
1532.737 1.736 20616782 "Exp.Trial" "MASKSCREEN_START_Henne_E_DEG_N_228" 311 "[[217,294,384,384]]" 311 "Henne" "blue" "degradated" "not underlined" "320" NA
1536.208 2.7 20620253 "Exp.Trial" "MASKSCREEN_START_Zinke_E_LET_U_240" 312 "[[229,306,384,384]]" 312 "Zinke" "blue" "non-degradated" "underlined" "168" NA
1540.504 2.62 20624549 "Exp.Trial" "MASKSCREEN_START_Pulle_K_LET_N_339" 313 "[[328,405,384,384]]" 313 "Pulle" "black" "non-degradated" "not underlined" "48" NA
1544.573 1.84 20628618 "Exp.Trial" "MASKSCREEN_START_Enkel_E_LET_N_277" 314 "[[266,343,384,384]]" 314 "Enkel" "blue" "non-degradated" "not underlined" "205" NA
1549.053 2.2 20633098 "Exp.Trial" "MASKSCREEN_START_Mokka_E_DEG_N_302" 315 "[[291,368,384,384]]" 315 "Mokka" "blue" "degradated" "not underlined" "312" NA
1552.878 1.543 20636923 "Exp.Trial" "MASKSCREEN_START_Elite_E_LET_N_290" 316 "[[279,356,384,384]]" 316 "Elite" "blue" "non-degradated" "not underlined" "233" 0
1560.758 2.283 20644803 "Exp.Trial" "MASKSCREEN_START_Werft_K_DEG_U_376" 317 "[[365,442,384,384]]" 317 "Werft" "black" "degradated" "underlined" "87" NA
1564.787 1.872 20648832 "Exp.Trial" "MASKSCREEN_START_Nonne_E_LET_U_265" 318 "[[254,331,384,384]]" 318 "Nonne" "blue" "non-degradated" "underlined" "198" NA
1568.259 1.909 20652304 "Exp.Trial" "MASKSCREEN_START_Panda_K_LET_U_265" 319 "[[254,331,384,384]]" 319 "Panda" "black" "non-degradated" "underlined" "31" NA
1572.501 1.897 20656546 "Exp.Trial" "MASKSCREEN_START_Logik_K_DEG_N_389" 320 "[[378,455,384,384]]" 320 "Logik" "black" "degradated" "not underlined" "144" NA
