"onset" "duration" "sample" "trial_type" "event_nr" "aoi" "trial" "target_word" "color" "mask" "underlining" "sentenceNr" "response"
0 3.073 397545 "Exp.Trial" 1 "[[277,332,\"NA\",\"NA\"]]" 1 "Herde" "blue" "degradated" "not underlined" "204" NA
5.257 2.009 402802 "Exp.Trial" 2 "[[240,295,\"NA\",\"NA\"]]" 2 "Flair" "black" "non-degradated" "not underlined" "147" NA
9.857 3.387 407402 "Exp.Trial" 3 "[[327,382,\"NA\",\"NA\"]]" 3 "Karte" "blue" "non-degradated" "underlined" "254" NA
15.772 1.674 413317 "Exp.Trial" 4 "[[352,407,\"NA\",\"NA\"]]" 4 "Paket" "black" "degradated" "not underlined" "77" NA
19.055 2.045 416600 "Exp.Trial" 5 "[[339,394,\"NA\",\"NA\"]]" 5 "Organ" "blue" "non-degradated" "not underlined" "305" 0
28.69 2.593 426235 "Exp.Trial" 6 "[[265,320,\"NA\",\"NA\"]]" 6 "Aktie" "blue" "non-degradated" "underlined" "248" NA
32.923 1.264 430468 "Exp.Trial" 7 "[[352,407,\"NA\",\"NA\"]]" 7 "Münze" "black" "non-degradated" "underlined" "94" NA
36.796 1.55 434341 "Exp.Trial" 8 "[[290,345,\"NA\",\"NA\"]]" 8 "Taube" "black" "degradated" "not underlined" "41" NA
39.916 1.784 437461 "Exp.Trial" 9 "[[215,270,\"NA\",\"NA\"]]" 9 "Yacht" "black" "degradated" "underlined" "28" NA
43.879 4.153 441424 "Exp.Trial" 10 "[[252,307,\"NA\",\"NA\"]]" 10 "Sumpf" "blue" "degradated" "underlined" "182" NA
50.33 2.493 447875 "Exp.Trial" 11 "[[277,332,\"NA\",\"NA\"]]" 11 "Enkel" "blue" "degradated" "not underlined" "205" NA
55.182 2.099 452727 "Exp.Trial" 12 "[[240,295,\"NA\",\"NA\"]]" 12 "Probe" "black" "non-degradated" "underlined" "117" NA
58.801 2.676 456346 "Exp.Trial" 13 "[[228,283,\"NA\",\"NA\"]]" 13 "Ahorn" "blue" "degradated" "underlined" "193" NA
64.436 2.707 461981 "Exp.Trial" 14 "[[302,357,\"NA\",\"NA\"]]" 14 "Viola" "blue" "degradated" "not underlined" "217" NA
69.621 2.127 467166 "Exp.Trial" 15 "[[290,345,\"NA\",\"NA\"]]" 15 "Porto" "black" "degradated" "not underlined" "59" NA
74.389 1.768 471934 "Exp.Trial" 16 "[[228,283,\"NA\",\"NA\"]]" 16 "Krebs" "black" "degradated" "underlined" "29" 0
80.986 3.556 478531 "Exp.Trial" 17 "[[215,270,\"NA\",\"NA\"]]" 17 "Psalm" "black" "non-degradated" "underlined" "118" NA
86.123 2.025 483668 "Exp.Trial" 18 "[[252,307,\"NA\",\"NA\"]]" 18 "Zicke" "blue" "degradated" "underlined" "183" NA
89.715 2.257 487260 "Exp.Trial" 19 "[[414,469,\"NA\",\"NA\"]]" 19 "Fjord" "blue" "non-degradated" "not underlined" "283" NA
94.461 1.882 492006 "Exp.Trial" 20 "[[252,307,\"NA\",\"NA\"]]" 20 "Kette" "blue" "degradated" "underlined" "199" NA
98.684 1.29 496229 "Exp.Trial" 21 "[[252,307,\"NA\",\"NA\"]]" 21 "Minze" "blue" "non-degradated" "not underlined" "303" NA
102.183 3.382 499728 "Exp.Trial" 22 "[[426,481,\"NA\",\"NA\"]]" 22 "Buchs" "black" "degradated" "underlined" "5" NA
107.731 2.042 505276 "Exp.Trial" 23 "[[401,456,\"NA\",\"NA\"]]" 23 "Kiste" "blue" "degradated" "underlined" "187" NA
112.247 4.144 509792 "Exp.Trial" 24 "[[277,332,\"NA\",\"NA\"]]" 24 "Kluft" "blue" "non-degradated" "underlined" "258" NA
118.988 1.928 516533 "Exp.Trial" 25 "[[252,307,\"NA\",\"NA\"]]" 25 "Belag" "blue" "degradated" "not underlined" "218" NA
122.309 1.998 519854 "Exp.Trial" 26 "[[252,307,\"NA\",\"NA\"]]" 26 "Achse" "blue" "degradated" "underlined" "172" NA
125.94 2.569 523485 "Exp.Trial" 27 "[[327,382,\"NA\",\"NA\"]]" 27 "Zuzug" "black" "non-degradated" "underlined" "106" NA
131.005 1.815 528550 "Exp.Trial" 28 "[[302,357,\"NA\",\"NA\"]]" 28 "China" "blue" "non-degradated" "underlined" "257" NA
135.34 2.233 532885 "Exp.Trial" 29 "[[376,431,\"NA\",\"NA\"]]" 29 "Eifer" "black" "non-degradated" "underlined" "84" NA
140.027 3.735 537572 "Exp.Trial" 30 "[[314,369,\"NA\",\"NA\"]]" 30 "Kugel" "blue" "degradated" "underlined" "186" 0
150.96 2.314 548505 "Exp.Trial" 31 "[[426,481,\"NA\",\"NA\"]]" 31 "Liste" "black" "non-degradated" "underlined" "99" NA
154.896 1.644 552441 "Exp.Trial" 32 "[[240,295,\"NA\",\"NA\"]]" 32 "Trupp" "blue" "non-degradated" "underlined" "262" 0
162.55 1.739 560095 "Exp.Trial" 33 "[[240,295,\"NA\",\"NA\"]]" 33 "Feger" "blue" "non-degradated" "not underlined" "285" NA
166.752 1.783 564297 "Exp.Trial" 34 "[[500,555,\"NA\",\"NA\"]]" 34 "Tulpe" "blue" "non-degradated" "underlined" "245" NA
170.159 1.961 567704 "Exp.Trial" 35 "[[314,369,\"NA\",\"NA\"]]" 35 "Beruf" "black" "degradated" "underlined" "17" NA
173.576 1.904 571121 "Exp.Trial" 36 "[[339,394,\"NA\",\"NA\"]]" 36 "Gebet" "black" "non-degradated" "not underlined" "156" NA
178.038 3.109 575583 "Exp.Trial" 37 "[[302,357,\"NA\",\"NA\"]]" 37 "Büste" "black" "degradated" "underlined" "25" NA
183.328 3.275 580873 "Exp.Trial" 38 "[[290,345,\"NA\",\"NA\"]]" 38 "Bürde" "blue" "degradated" "not underlined" "238" NA
188.208 2.084 585753 "Exp.Trial" 39 "[[376,431,\"NA\",\"NA\"]]" 39 "Rispe" "blue" "non-degradated" "underlined" "275" 0
197.188 1.956 594733 "Exp.Trial" 40 "[[290,345,\"NA\",\"NA\"]]" 40 "Fülle" "blue" "non-degradated" "underlined" "271" NA
201.422 1.882 598967 "Exp.Trial" 41 "[[215,270,\"NA\",\"NA\"]]" 41 "Liege" "blue" "non-degradated" "underlined" "280" 0
209.597 2.663 607142 "Exp.Trial" 42 "[[414,469,\"NA\",\"NA\"]]" 42 "Plane" "blue" "non-degradated" "underlined" "277" NA
214.72 2.171 612265 "Exp.Trial" 43 "[[277,332,\"NA\",\"NA\"]]" 43 "Pizza" "blue" "degradated" "not underlined" "211" NA
219.235 1.557 616780 "Exp.Trial" 44 "[[228,283,\"NA\",\"NA\"]]" 44 "Mango" "blue" "non-degradated" "not underlined" "286" NA
223.662 3.282 621207 "Exp.Trial" 45 "[[364,419,\"NA\",\"NA\"]]" 45 "Spreu" "blue" "degradated" "underlined" "161" NA
228.554 2.014 626099 "Exp.Trial" 46 "[[389,444,\"NA\",\"NA\"]]" 46 "Beute" "blue" "degradated" "underlined" "169" NA
233.095 2.852 630640 "Exp.Trial" 47 "[[327,382,\"NA\",\"NA\"]]" 47 "Daune" "black" "non-degradated" "underlined" "110" NA
239.401 4.404 636946 "Exp.Trial" 48 "[[277,332,\"NA\",\"NA\"]]" 48 "Würze" "blue" "non-degradated" "underlined" "263" NA
245.402 3.148 642947 "Exp.Trial" 49 "[[600,655,\"NA\",\"NA\"]]" 49 "Leere" "blue" "non-degradated" "not underlined" "290" NA
250.783 1.991 648328 "Exp.Trial" 50 "[[228,283,\"NA\",\"NA\"]]" 50 "Kleid" "blue" "non-degradated" "not underlined" "281" 0
258.288 2.969 655833 "Exp.Trial" 51 "[[339,394,\"NA\",\"NA\"]]" 51 "Buche" "black" "non-degradated" "not underlined" "122" NA
263.779 2.114 661324 "Exp.Trial" 52 "[[389,444,\"NA\",\"NA\"]]" 52 "Bauer" "blue" "degradated" "underlined" "196" NA
267.262 2.828 664807 "Exp.Trial" 53 "[[277,332,\"NA\",\"NA\"]]" 53 "Kerze" "blue" "degradated" "underlined" "165" NA
271.696 2.574 669241 "Exp.Trial" 54 "[[277,332,\"NA\",\"NA\"]]" 54 "Wüste" "blue" "non-degradated" "underlined" "261" 0
280.078 2.437 677623 "Exp.Trial" 55 "[[414,469,\"NA\",\"NA\"]]" 55 "Stamm" "blue" "non-degradated" "underlined" "274" NA
284.55 2.446 682095 "Exp.Trial" 56 "[[302,357,\"NA\",\"NA\"]]" 56 "Kolik" "blue" "non-degradated" "underlined" "253" NA
289.44 1.959 686985 "Exp.Trial" 57 "[[538,593,\"NA\",\"NA\"]]" 57 "Eimer" "blue" "degradated" "not underlined" "216" NA
293.782 3.071 691327 "Exp.Trial" 58 "[[314,369,\"NA\",\"NA\"]]" 58 "Dicke" "black" "degradated" "not underlined" "43" NA
298.455 2.391 696000 "Exp.Trial" 59 "[[426,481,\"NA\",\"NA\"]]" 59 "Meise" "black" "non-degradated" "underlined" "105" NA
302.511 3.167 700056 "Exp.Trial" 60 "[[277,332,\"NA\",\"NA\"]]" 60 "Kuhle" "black" "degradated" "not underlined" "45" NA
307.344 1.809 704889 "Exp.Trial" 61 "[[339,394,\"NA\",\"NA\"]]" 61 "Karat" "black" "degradated" "underlined" "37" NA
311.049 2.579 708594 "Exp.Trial" 62 "[[401,456,\"NA\",\"NA\"]]" 62 "Bogen" "blue" "degradated" "not underlined" "221" NA
315.787 3.948 713332 "Exp.Trial" 63 "[[228,283,\"NA\",\"NA\"]]" 63 "Kongo" "black" "degradated" "underlined" "15" NA
321.33 3.729 718875 "Exp.Trial" 64 "[[290,345,\"NA\",\"NA\"]]" 64 "Zobel" "black" "non-degradated" "not underlined" "158" NA
327.383 2.001 724928 "Exp.Trial" 65 "[[240,295,\"NA\",\"NA\"]]" 65 "Zinke" "blue" "degradated" "underlined" "168" NA
330.963 3.48 728508 "Exp.Trial" 66 "[[426,481,\"NA\",\"NA\"]]" 66 "Beuge" "black" "degradated" "not underlined" "73" NA
336.691 3.092 734236 "Exp.Trial" 67 "[[376,431,\"NA\",\"NA\"]]" 67 "Sehne" "black" "degradated" "underlined" "26" NA
341.405 2.086 738950 "Exp.Trial" 68 "[[364,419,\"NA\",\"NA\"]]" 68 "Griff" "blue" "degradated" "not underlined" "225" NA
345.84 2.171 743385 "Exp.Trial" 69 "[[228,283,\"NA\",\"NA\"]]" 69 "Laken" "blue" "non-degradated" "not underlined" "298" NA
350.727 2.418 748272 "Exp.Trial" 70 "[[327,382,\"NA\",\"NA\"]]" 70 "Beleg" "blue" "degradated" "not underlined" "212" NA
355.962 2.102 753507 "Exp.Trial" 71 "[[327,382,\"NA\",\"NA\"]]" 71 "Kelch" "black" "degradated" "underlined" "8" 0
364.487 2.658 762032 "Exp.Trial" 72 "[[240,295,\"NA\",\"NA\"]]" 72 "Torte" "black" "non-degradated" "not underlined" "149" NA
369.596 2.417 767141 "Exp.Trial" 73 "[[265,320,\"NA\",\"NA\"]]" 73 "Dämon" "blue" "degradated" "underlined" "192" NA
374.033 2.83 771578 "Exp.Trial" 74 "[[265,320,\"NA\",\"NA\"]]" 74 "Moder" "black" "non-degradated" "underlined" "97" NA
378.63 2.582 776175 "Exp.Trial" 75 "[[252,307,\"NA\",\"NA\"]]" 75 "Depot" "black" "non-degradated" "not underlined" "135" NA
383.299 1.462 780844 "Exp.Trial" 76 "[[265,320,\"NA\",\"NA\"]]" 76 "Bombe" "black" "non-degradated" "not underlined" "129" 0
391.982 2.54 789527 "Exp.Trial" 77 "[[290,345,\"NA\",\"NA\"]]" 77 "Elite" "blue" "degradated" "not underlined" "233" NA
396.163 3.873 793708 "Exp.Trial" 78 "[[314,369,\"NA\",\"NA\"]]" 78 "Mafia" "black" "degradated" "underlined" "16" NA
401.647 1.579 799192 "Exp.Trial" 79 "[[290,345,\"NA\",\"NA\"]]" 79 "Otter" "black" "non-degradated" "underlined" "112" NA
405.302 2.728 802847 "Exp.Trial" 80 "[[228,283,\"NA\",\"NA\"]]" 80 "Kunde" "black" "degradated" "underlined" "20" NA
410.337 2.339 807882 "Exp.Trial" 81 "[[389,444,\"NA\",\"NA\"]]" 81 "Waffe" "blue" "degradated" "underlined" "174" 0
418.82 1.957 816365 "Exp.Trial" 82 "[[240,295,\"NA\",\"NA\"]]" 82 "Jubel" "black" "degradated" "underlined" "12" NA
423.308 2.18 820853 "Exp.Trial" 83 "[[265,320,\"NA\",\"NA\"]]" 83 "Prinz" "blue" "degradated" "underlined" "166" NA
427.23 2.09 824775 "Exp.Trial" 84 "[[401,456,\"NA\",\"NA\"]]" 84 "Lehne" "blue" "degradated" "not underlined" "224" NA
431.665 3.074 829210 "Exp.Trial" 85 "[[550,605,\"NA\",\"NA\"]]" 85 "Quast" "black" "degradated" "not underlined" "61" NA
436.305 2.195 833850 "Exp.Trial" 86 "[[252,307,\"NA\",\"NA\"]]" 86 "Tunke" "black" "degradated" "underlined" "30" NA
440.792 1.562 838337 "Exp.Trial" 87 "[[376,431,\"NA\",\"NA\"]]" 87 "Anruf" "black" "non-degradated" "underlined" "91" 0
447.51 1.912 845055 "Exp.Trial" 88 "[[389,444,\"NA\",\"NA\"]]" 88 "Abruf" "black" "degradated" "not underlined" "71" NA
450.83 2.542 848375 "Exp.Trial" 89 "[[314,369,\"NA\",\"NA\"]]" 89 "Brust" "blue" "non-degradated" "underlined" "251" NA
455.839 2.208 853384 "Exp.Trial" 90 "[[401,456,\"NA\",\"NA\"]]" 90 "Mähre" "blue" "degradated" "underlined" "167" NA
460.162 1.652 857707 "Exp.Trial" 91 "[[314,369,\"NA\",\"NA\"]]" 91 "Villa" "blue" "degradated" "not underlined" "240" NA
464.047 2.355 861592 "Exp.Trial" 92 "[[327,382,\"NA\",\"NA\"]]" 92 "Laich" "black" "non-degradated" "underlined" "113" 0
473.175 2.118 870720 "Exp.Trial" 93 "[[401,456,\"NA\",\"NA\"]]" 93 "Wange" "blue" "non-degradated" "underlined" "256" 0
481.786 2.801 879331 "Exp.Trial" 94 "[[525,580,\"NA\",\"NA\"]]" 94 "Heber" "blue" "non-degradated" "not underlined" "292" NA
486.776 2.876 884321 "Exp.Trial" 95 "[[265,320,\"NA\",\"NA\"]]" 95 "Spott" "blue" "degradated" "underlined" "180" NA
491.243 2.011 888788 "Exp.Trial" 96 "[[228,283,\"NA\",\"NA\"]]" 96 "Wuchs" "black" "non-degradated" "underlined" "85" NA
495.333 1.724 892878 "Exp.Trial" 97 "[[290,345,\"NA\",\"NA\"]]" 97 "Wunde" "blue" "degradated" "not underlined" "202" NA
498.672 2.735 896217 "Exp.Trial" 98 "[[376,431,\"NA\",\"NA\"]]" 98 "Werft" "black" "non-degradated" "underlined" "87" NA
503.837 3.449 901382 "Exp.Trial" 99 "[[228,283,\"NA\",\"NA\"]]" 99 "Orbit" "blue" "non-degradated" "not underlined" "287" 0
515.771 1.873 913316 "Exp.Trial" 100 "[[352,407,\"NA\",\"NA\"]]" 100 "Stola" "black" "non-degradated" "not underlined" "124" NA
520.007 2.476 917552 "Exp.Trial" 101 "[[476,531,\"NA\",\"NA\"]]" 101 "Gusto" "blue" "degradated" "not underlined" "220" NA
523.83 2.05 921375 "Exp.Trial" 102 "[[252,307,\"NA\",\"NA\"]]" 102 "Major" "blue" "degradated" "underlined" "195" NA
528.114 1.733 925659 "Exp.Trial" 103 "[[252,307,\"NA\",\"NA\"]]" 103 "Klima" "black" "non-degradated" "not underlined" "141" 0
535.971 2.477 933516 "Exp.Trial" 104 "[[265,320,\"NA\",\"NA\"]]" 104 "Balte" "blue" "degradated" "not underlined" "239" NA
540.333 2.294 937878 "Exp.Trial" 105 "[[314,369,\"NA\",\"NA\"]]" 105 "Härte" "black" "degradated" "not underlined" "72" NA
545.059 2.427 942604 "Exp.Trial" 106 "[[277,332,\"NA\",\"NA\"]]" 106 "Kehle" "blue" "non-degradated" "not underlined" "319" NA
550.032 2.222 947577 "Exp.Trial" 107 "[[252,307,\"NA\",\"NA\"]]" 107 "Wärme" "black" "degradated" "underlined" "21" NA
554.354 3.563 951899 "Exp.Trial" 108 "[[414,469,\"NA\",\"NA\"]]" 108 "Pfand" "blue" "degradated" "not underlined" "201" NA
559.531 2.285 957076 "Exp.Trial" 109 "[[488,543,\"NA\",\"NA\"]]" 109 "Bühne" "black" "non-degradated" "underlined" "101" NA
563.965 2.098 961510 "Exp.Trial" 110 "[[252,307,\"NA\",\"NA\"]]" 110 "Ruder" "blue" "degradated" "not underlined" "228" NA
568.134 2.525 965679 "Exp.Trial" 111 "[[451,506,\"NA\",\"NA\"]]" 111 "Äther" "black" "degradated" "underlined" "34" NA
572.92 2.231 970465 "Exp.Trial" 112 "[[228,283,\"NA\",\"NA\"]]" 112 "Lette" "black" "non-degradated" "underlined" "96" NA
577.719 2.374 975264 "Exp.Trial" 113 "[[240,295,\"NA\",\"NA\"]]" 113 "Messe" "blue" "non-degradated" "not underlined" "310" NA
582.121 1.765 979666 "Exp.Trial" 114 "[[228,283,\"NA\",\"NA\"]]" 114 "Alter" "blue" "non-degradated" "not underlined" "296" NA
585.473 3.045 983018 "Exp.Trial" 115 "[[215,270,\"NA\",\"NA\"]]" 115 "Bowle" "blue" "non-degradated" "underlined" "269" NA
590.518 2.569 988063 "Exp.Trial" 116 "[[476,531,\"NA\",\"NA\"]]" 116 "Erlös" "black" "degradated" "not underlined" "47" NA
594.535 1.48 992080 "Exp.Trial" 117 "[[314,369,\"NA\",\"NA\"]]" 117 "Gecko" "blue" "non-degradated" "underlined" "268" NA
598.159 2.746 995704 "Exp.Trial" 118 "[[265,320,\"NA\",\"NA\"]]" 118 "Zeder" "blue" "non-degradated" "not underlined" "304" NA
602.68 2.02 1000225 "Exp.Trial" 119 "[[228,283,\"NA\",\"NA\"]]" 119 "Sturz" "blue" "degradated" "not underlined" "219" NA
607.2 1.99 1004745 "Exp.Trial" 120 "[[252,307,\"NA\",\"NA\"]]" 120 "Madam" "black" "degradated" "underlined" "4" 0
615.506 1.735 1013051 "Exp.Trial" 121 "[[327,382,\"NA\",\"NA\"]]" 121 "Rippe" "black" "degradated" "not underlined" "56" NA
618.897 1.773 1016442 "Exp.Trial" 122 "[[228,283,\"NA\",\"NA\"]]" 122 "Ritze" "blue" "non-degradated" "not underlined" "318" NA
622.316 1.541 1019861 "Exp.Trial" 123 "[[327,382,\"NA\",\"NA\"]]" 123 "Knast" "blue" "non-degradated" "underlined" "278" NA
625.25 1.745 1022795 "Exp.Trial" 124 "[[265,320,\"NA\",\"NA\"]]" 124 "Miene" "black" "non-degradated" "not underlined" "155" NA
628.577 2.286 1026122 "Exp.Trial" 125 "[[277,332,\"NA\",\"NA\"]]" 125 "Salbe" "blue" "non-degradated" "underlined" "247" NA
633.289 2.453 1030834 "Exp.Trial" 126 "[[327,382,\"NA\",\"NA\"]]" 126 "Regie" "black" "non-degradated" "underlined" "116" 0
643.69 2.38 1041235 "Exp.Trial" 127 "[[228,283,\"NA\",\"NA\"]]" 127 "Kokon" "black" "degradated" "not underlined" "52" NA
648.59 1.75 1046135 "Exp.Trial" 128 "[[277,332,\"NA\",\"NA\"]]" 128 "Zeche" "black" "non-degradated" "underlined" "82" 0
656.058 1.957 1053603 "Exp.Trial" 129 "[[252,307,\"NA\",\"NA\"]]" 129 "Knabe" "black" "degradated" "underlined" "1" 0
675.993 3.335 1073538 "Exp.Trial" 130 "[[215,270,\"NA\",\"NA\"]]" 130 "Hüter" "black" "degradated" "not underlined" "66" NA
681.482 3.366 1079027 "Exp.Trial" 131 "[[364,419,\"NA\",\"NA\"]]" 131 "Axiom" "black" "degradated" "underlined" "27" NA
687.283 2.752 1084828 "Exp.Trial" 132 "[[240,295,\"NA\",\"NA\"]]" 132 "Lauge" "blue" "degradated" "not underlined" "236" NA
692.176 2.002 1089721 "Exp.Trial" 133 "[[228,283,\"NA\",\"NA\"]]" 133 "Nylon" "black" "non-degradated" "not underlined" "139" NA
696.159 2.897 1093704 "Exp.Trial" 134 "[[228,283,\"NA\",\"NA\"]]" 134 "Etage" "blue" "non-degradated" "underlined" "260" NA
700.76 2.259 1098305 "Exp.Trial" 135 "[[414,469,\"NA\",\"NA\"]]" 135 "Quart" "black" "non-degradated" "not underlined" "146" 0
710.232 3.502 1107777 "Exp.Trial" 136 "[[252,307,\"NA\",\"NA\"]]" 136 "Druck" "black" "degradated" "not underlined" "75" NA
715.331 2.687 1112876 "Exp.Trial" 137 "[[252,307,\"NA\",\"NA\"]]" 137 "Abgas" "black" "non-degradated" "not underlined" "138" NA
719.354 1.929 1116899 "Exp.Trial" 138 "[[252,307,\"NA\",\"NA\"]]" 138 "Abend" "black" "degradated" "underlined" "7" NA
723.58 3.445 1121125 "Exp.Trial" 139 "[[488,543,\"NA\",\"NA\"]]" 139 "Götze" "blue" "degradated" "underlined" "179" NA
729.948 2.016 1127493 "Exp.Trial" 140 "[[327,382,\"NA\",\"NA\"]]" 140 "Lücke" "black" "degradated" "not underlined" "80" 0
737.456 1.267 1135001 "Exp.Trial" 141 "[[314,369,\"NA\",\"NA\"]]" 141 "Twist" "black" "degradated" "not underlined" "79" NA
740.104 3.669 1137649 "Exp.Trial" 142 "[[414,469,\"NA\",\"NA\"]]" 142 "Block" "black" "degradated" "not underlined" "60" NA
746.026 1.616 1143571 "Exp.Trial" 143 "[[228,283,\"NA\",\"NA\"]]" 143 "Regal" "black" "degradated" "underlined" "10" NA
749.286 1.515 1146831 "Exp.Trial" 144 "[[314,369,\"NA\",\"NA\"]]" 144 "Luder" "blue" "non-degradated" "underlined" "259" NA
752.892 2.989 1150437 "Exp.Trial" 145 "[[401,456,\"NA\",\"NA\"]]" 145 "Gicht" "black" "degradated" "underlined" "33" NA
757.523 2.362 1155068 "Exp.Trial" 146 "[[476,531,\"NA\",\"NA\"]]" 146 "Reibe" "blue" "non-degradated" "not underlined" "295" NA
762.39 2.079 1159935 "Exp.Trial" 147 "[[376,431,\"NA\",\"NA\"]]" 147 "Nagel" "black" "degradated" "not underlined" "65" NA
766.08 2 1163625 "Exp.Trial" 148 "[[228,283,\"NA\",\"NA\"]]" 148 "Echse" "blue" "non-degradated" "not underlined" "288" NA
770.343 1.542 1167888 "Exp.Trial" 149 "[[438,493,\"NA\",\"NA\"]]" 149 "Musik" "blue" "degradated" "underlined" "200" NA
773.482 1.559 1171027 "Exp.Trial" 150 "[[339,394,\"NA\",\"NA\"]]" 150 "Falle" "blue" "non-degradated" "underlined" "244" 0
780.932 3.372 1178477 "Exp.Trial" 151 "[[265,320,\"NA\",\"NA\"]]" 151 "Dekan" "black" "degradated" "underlined" "11" NA
785.87 1.867 1183415 "Exp.Trial" 152 "[[352,407,\"NA\",\"NA\"]]" 152 "Witwe" "black" "degradated" "not underlined" "64" NA
789.94 1.519 1187485 "Exp.Trial" 153 "[[290,345,\"NA\",\"NA\"]]" 153 "Anker" "black" "degradated" "underlined" "22" NA
793.498 3.323 1191043 "Exp.Trial" 154 "[[240,295,\"NA\",\"NA\"]]" 154 "Kutte" "black" "degradated" "underlined" "9" NA
799.656 2.695 1197201 "Exp.Trial" 155 "[[352,407,\"NA\",\"NA\"]]" 155 "Mimik" "blue" "non-degradated" "not underlined" "293" NA
803.958 1.883 1201503 "Exp.Trial" 156 "[[265,320,\"NA\",\"NA\"]]" 156 "Getön" "blue" "degradated" "underlined" "175" 0
813.192 2.774 1210737 "Exp.Trial" 157 "[[426,481,\"NA\",\"NA\"]]" 157 "Troll" "black" "degradated" "not underlined" "57" NA
818.648 2.837 1216193 "Exp.Trial" 158 "[[302,357,\"NA\",\"NA\"]]" 158 "Mokka" "blue" "non-degradated" "not underlined" "312" NA
823.72 1.987 1221265 "Exp.Trial" 159 "[[389,444,\"NA\",\"NA\"]]" 159 "Puder" "blue" "degradated" "underlined" "181" NA
827.253 2.911 1224798 "Exp.Trial" 160 "[[277,332,\"NA\",\"NA\"]]" 160 "Chrom" "blue" "degradated" "not underlined" "213" 0
838.344 1.73 1235889 "Exp.Trial" 161 "[[414,469,\"NA\",\"NA\"]]" 161 "Decke" "black" "non-degradated" "underlined" "86" NA
842.36 2.091 1239905 "Exp.Trial" 162 "[[240,295,\"NA\",\"NA\"]]" 162 "Abzug" "black" "non-degradated" "not underlined" "130" NA
846.018 2.349 1243563 "Exp.Trial" 163 "[[265,320,\"NA\",\"NA\"]]" 163 "Manko" "blue" "degradated" "underlined" "173" NA
849.981 2.78 1247526 "Exp.Trial" 164 "[[476,531,\"NA\",\"NA\"]]" 164 "Wanst" "blue" "non-degradated" "not underlined" "297" NA
855.032 1.024 1252577 "Exp.Trial" 165 "[[265,320,\"NA\",\"NA\"]]" 165 "Pilot" "black" "non-degradated" "not underlined" "132" NA
857.609 1.543 1255154 "Exp.Trial" 166 "[[228,283,\"NA\",\"NA\"]]" 166 "Baske" "black" "degradated" "not underlined" "78" NA
860.808 1.875 1258353 "Exp.Trial" 167 "[[290,345,\"NA\",\"NA\"]]" 167 "Raser" "black" "degradated" "underlined" "3" NA
865.349 2.257 1262894 "Exp.Trial" 168 "[[302,357,\"NA\",\"NA\"]]" 168 "Waage" "blue" "non-degradated" "underlined" "255" NA
869.929 2.314 1267474 "Exp.Trial" 169 "[[302,357,\"NA\",\"NA\"]]" 169 "Teint" "blue" "degradated" "not underlined" "229" NA
873.845 1.982 1271390 "Exp.Trial" 170 "[[339,394,\"NA\",\"NA\"]]" 170 "Malve" "blue" "non-degradated" "underlined" "241" NA
878.088 2.147 1275633 "Exp.Trial" 171 "[[314,369,\"NA\",\"NA\"]]" 171 "Boxer" "blue" "non-degradated" "not underlined" "313" NA
882.615 2.252 1280160 "Exp.Trial" 172 "[[352,407,\"NA\",\"NA\"]]" 172 "Fötus" "blue" "non-degradated" "not underlined" "289" NA
887.157 1.961 1284702 "Exp.Trial" 173 "[[228,283,\"NA\",\"NA\"]]" 173 "Datum" "black" "non-degradated" "underlined" "107" NA
891.236 2.411 1288781 "Exp.Trial" 174 "[[277,332,\"NA\",\"NA\"]]" 174 "Beton" "black" "non-degradated" "not underlined" "125" NA
895.207 2.934 1292752 "Exp.Trial" 175 "[[488,543,\"NA\",\"NA\"]]" 175 "Tisch" "black" "degradated" "not underlined" "62" NA
899.797 2.041 1297342 "Exp.Trial" 176 "[[339,394,\"NA\",\"NA\"]]" 176 "Spore" "black" "degradated" "not underlined" "42" NA
903.406 2.331 1300951 "Exp.Trial" 177 "[[327,382,\"NA\",\"NA\"]]" 177 "Ungar" "black" "non-degradated" "underlined" "95" NA
908.027 1.898 1305572 "Exp.Trial" 178 "[[376,431,\"NA\",\"NA\"]]" 178 "These" "black" "degradated" "not underlined" "53" NA
911.99 1.953 1309535 "Exp.Trial" 179 "[[364,419,\"NA\",\"NA\"]]" 179 "Bande" "blue" "degradated" "not underlined" "209" NA
915.567 4.728 1313112 "Exp.Trial" 180 "[[376,431,\"NA\",\"NA\"]]" 180 "Heide" "blue" "degradated" "underlined" "191" NA
921.9 2.23 1319445 "Exp.Trial" 181 "[[376,431,\"NA\",\"NA\"]]" 181 "Ärmel" "black" "degradated" "not underlined" "76" NA
926.559 3.64 1324104 "Exp.Trial" 182 "[[302,357,\"NA\",\"NA\"]]" 182 "Markt" "black" "degradated" "not underlined" "74" NA
931.758 2.334 1329303 "Exp.Trial" 183 "[[215,270,\"NA\",\"NA\"]]" 183 "Pirat" "black" "non-degradated" "not underlined" "133" NA
936.252 2.04 1333797 "Exp.Trial" 184 "[[228,283,\"NA\",\"NA\"]]" 184 "Blatt" "black" "non-degradated" "underlined" "115" NA
939.829 2.259 1337374 "Exp.Trial" 185 "[[240,295,\"NA\",\"NA\"]]" 185 "Plage" "black" "degradated" "not underlined" "54" 0
947.596 3.26 1345141 "Exp.Trial" 186 "[[302,357,\"NA\",\"NA\"]]" 186 "Sigma" "blue" "degradated" "not underlined" "234" 0
958.065 2.455 1355610 "Exp.Trial" 187 "[[203,258,\"NA\",\"NA\"]]" 187 "Hafer" "blue" "degradated" "underlined" "177" NA
963.164 1.642 1360709 "Exp.Trial" 188 "[[290,345,\"NA\",\"NA\"]]" 188 "Drama" "blue" "non-degradated" "not underlined" "314" NA
966.31 2.232 1363855 "Exp.Trial" 189 "[[277,332,\"NA\",\"NA\"]]" 189 "Slawe" "blue" "degradated" "underlined" "171" NA
970.053 1.951 1367598 "Exp.Trial" 190 "[[290,345,\"NA\",\"NA\"]]" 190 "Seife" "black" "degradated" "underlined" "6" NA
974.37 1.63 1371915 "Exp.Trial" 191 "[[376,431,\"NA\",\"NA\"]]" 191 "Würde" "black" "non-degradated" "underlined" "104" NA
977.329 2.11 1374874 "Exp.Trial" 192 "[[228,283,\"NA\",\"NA\"]]" 192 "Masse" "black" "degradated" "not underlined" "50" NA
981.863 1.729 1379408 "Exp.Trial" 193 "[[252,307,\"NA\",\"NA\"]]" 193 "Panne" "blue" "non-degradated" "underlined" "276" NA
985.708 2.067 1383253 "Exp.Trial" 194 "[[240,295,\"NA\",\"NA\"]]" 194 "Matte" "black" "non-degradated" "not underlined" "143" NA
989.397 1.989 1386942 "Exp.Trial" 195 "[[252,307,\"NA\",\"NA\"]]" 195 "Hülle" "blue" "non-degradated" "not underlined" "294" NA
992.79 4.345 1390335 "Exp.Trial" 196 "[[550,605,\"NA\",\"NA\"]]" 196 "Korps" "blue" "non-degradated" "not underlined" "309" NA
998.565 3.244 1396110 "Exp.Trial" 197 "[[327,382,\"NA\",\"NA\"]]" 197 "Reuse" "blue" "non-degradated" "not underlined" "315" NA
1003.358 1.68 1400903 "Exp.Trial" 198 "[[265,320,\"NA\",\"NA\"]]" 198 "Hocke" "blue" "non-degradated" "not underlined" "308" NA
1006.664 2.176 1404209 "Exp.Trial" 199 "[[426,481,\"NA\",\"NA\"]]" 199 "Juwel" "black" "non-degradated" "not underlined" "142" 0
1015.751 3.475 1413296 "Exp.Trial" 200 "[[240,295,\"NA\",\"NA\"]]" 200 "Gräte" "blue" "non-degradated" "underlined" "243" NA
1020.668 2.723 1418213 "Exp.Trial" 201 "[[364,419,\"NA\",\"NA\"]]" 201 "Polio" "black" "non-degradated" "underlined" "103" NA
1024.918 3.618 1422463 "Exp.Trial" 202 "[[339,394,\"NA\",\"NA\"]]" 202 "Trott" "blue" "degradated" "underlined" "194" NA
1030.157 1.719 1427702 "Exp.Trial" 203 "[[277,332,\"NA\",\"NA\"]]" 203 "Geist" "black" "non-degradated" "not underlined" "134" NA
1033.475 2.05 1431020 "Exp.Trial" 204 "[[290,345,\"NA\",\"NA\"]]" 204 "Tabak" "blue" "non-degradated" "not underlined" "316" NA
1037.113 2.4 1434658 "Exp.Trial" 205 "[[314,369,\"NA\",\"NA\"]]" 205 "Zucht" "black" "non-degradated" "underlined" "111" NA
1041.335 1.6 1438880 "Exp.Trial" 206 "[[228,283,\"NA\",\"NA\"]]" 206 "Hecke" "blue" "degradated" "not underlined" "230" NA
1044.475 1.881 1442020 "Exp.Trial" 207 "[[215,270,\"NA\",\"NA\"]]" 207 "Union" "black" "degradated" "not underlined" "46" NA
1047.901 2.22 1445446 "Exp.Trial" 208 "[[339,394,\"NA\",\"NA\"]]" 208 "Raupe" "black" "non-degradated" "not underlined" "153" NA
1051.717 2.359 1449262 "Exp.Trial" 209 "[[327,382,\"NA\",\"NA\"]]" 209 "Sorte" "blue" "non-degradated" "not underlined" "299" NA
1055.449 1.966 1452994 "Exp.Trial" 210 "[[277,332,\"NA\",\"NA\"]]" 210 "Kater" "blue" "non-degradated" "underlined" "252" NA
1059.007 1.49 1456552 "Exp.Trial" 211 "[[240,295,\"NA\",\"NA\"]]" 211 "Stube" "blue" "non-degradated" "underlined" "273" NA
1062.106 2.492 1459651 "Exp.Trial" 212 "[[277,332,\"NA\",\"NA\"]]" 212 "Tapir" "black" "non-degradated" "underlined" "92" NA
1066.681 1.889 1464226 "Exp.Trial" 213 "[[401,456,\"NA\",\"NA\"]]" 213 "Klaps" "black" "degradated" "not underlined" "70" NA
1069.965 2.001 1467510 "Exp.Trial" 214 "[[500,555,\"NA\",\"NA\"]]" 214 "Lauch" "blue" "degradated" "underlined" "197" NA
1073.997 2.51 1471542 "Exp.Trial" 215 "[[451,506,\"NA\",\"NA\"]]" 215 "Ziege" "black" "degradated" "not underlined" "51" NA
1078.06 2.99 1475605 "Exp.Trial" 216 "[[240,295,\"NA\",\"NA\"]]" 216 "Pfahl" "blue" "degradated" "underlined" "189" NA
1082.539 2.69 1480084 "Exp.Trial" 217 "[[488,543,\"NA\",\"NA\"]]" 217 "Kreml" "blue" "degradated" "not underlined" "222" NA
1086.781 2.511 1484326 "Exp.Trial" 218 "[[252,307,\"NA\",\"NA\"]]" 218 "Sense" "black" "degradated" "not underlined" "44" NA
1091.673 1.727 1489218 "Exp.Trial" 219 "[[290,345,\"NA\",\"NA\"]]" 219 "Armee" "blue" "non-degradated" "not underlined" "284" NA
1095.616 2.04 1493161 "Exp.Trial" 220 "[[414,469,\"NA\",\"NA\"]]" 220 "Sippe" "blue" "degradated" "underlined" "188" NA
1099.148 2.19 1496693 "Exp.Trial" 221 "[[426,481,\"NA\",\"NA\"]]" 221 "Pfund" "blue" "degradated" "underlined" "164" 0
1107.359 3.18 1504904 "Exp.Trial" 222 "[[339,394,\"NA\",\"NA\"]]" 222 "Weber" "black" "degradated" "underlined" "38" NA
1112.498 2.146 1510043 "Exp.Trial" 223 "[[265,320,\"NA\",\"NA\"]]" 223 "Panda" "black" "degradated" "underlined" "31" 0
1120.835 2.446 1518380 "Exp.Trial" 224 "[[364,419,\"NA\",\"NA\"]]" 224 "Garde" "black" "degradated" "underlined" "39" NA
1124.796 2.38 1522341 "Exp.Trial" 225 "[[364,419,\"NA\",\"NA\"]]" 225 "Viper" "black" "degradated" "underlined" "19" NA
1128.694 2.443 1526239 "Exp.Trial" 226 "[[314,369,\"NA\",\"NA\"]]" 226 "Kajak" "blue" "degradated" "underlined" "190" NA
1132.79 1.639 1530335 "Exp.Trial" 227 "[[314,369,\"NA\",\"NA\"]]" 227 "Rinde" "black" "non-degradated" "not underlined" "148" NA
1135.997 2.265 1533542 "Exp.Trial" 228 "[[240,295,\"NA\",\"NA\"]]" 228 "Strom" "blue" "degradated" "underlined" "163" NA
1139.833 2.441 1537378 "Exp.Trial" 229 "[[513,568,\"NA\",\"NA\"]]" 229 "Atoll" "black" "non-degradated" "underlined" "98" 0
1155.188 2.776 1552733 "Exp.Trial" 230 "[[265,320,\"NA\",\"NA\"]]" 230 "Nonne" "blue" "degradated" "underlined" "198" 0
1164.369 3.228 1561914 "Exp.Trial" 231 "[[302,357,\"NA\",\"NA\"]]" 231 "Säule" "black" "non-degradated" "not underlined" "126" NA
1169.719 2.434 1567264 "Exp.Trial" 232 "[[290,345,\"NA\",\"NA\"]]" 232 "Möbel" "blue" "degradated" "not underlined" "226" 0
1178.322 1.812 1575867 "Exp.Trial" 233 "[[302,357,\"NA\",\"NA\"]]" 233 "Rache" "blue" "degradated" "not underlined" "223" NA
1181.523 1.391 1579068 "Exp.Trial" 234 "[[314,369,\"NA\",\"NA\"]]" 234 "Ikone" "blue" "non-degradated" "underlined" "267" NA
1184.475 2.909 1582020 "Exp.Trial" 235 "[[228,283,\"NA\",\"NA\"]]" 235 "Phase" "black" "degradated" "not underlined" "69" NA
1189.017 2.952 1586562 "Exp.Trial" 236 "[[290,345,\"NA\",\"NA\"]]" 236 "Miliz" "black" "non-degradated" "underlined" "120" NA
1193.505 4.321 1591050 "Exp.Trial" 237 "[[748,803,\"NA\",\"NA\"]]" 237 "Sühne" "black" "degradated" "underlined" "18" NA
1199.585 1.508 1597130 "Exp.Trial" 238 "[[228,283,\"NA\",\"NA\"]]" 238 "Lager" "black" "non-degradated" "not underlined" "145" NA
1202.684 2.248 1600229 "Exp.Trial" 239 "[[228,283,\"NA\",\"NA\"]]" 239 "Vogel" "blue" "degradated" "not underlined" "206" 1
1210.903 1.866 1608448 "Exp.Trial" 240 "[[339,394,\"NA\",\"NA\"]]" 240 "Pulle" "black" "degradated" "not underlined" "48" NA
1214.189 2.456 1611734 "Exp.Trial" 241 "[[265,320,\"NA\",\"NA\"]]" 241 "Votum" "blue" "non-degradated" "not underlined" "317" NA
1218.809 1.28 1616354 "Exp.Trial" 242 "[[327,382,\"NA\",\"NA\"]]" 242 "Beule" "blue" "non-degradated" "underlined" "266" 0
1225.175 2.198 1622720 "Exp.Trial" 243 "[[339,394,\"NA\",\"NA\"]]" 243 "Ratte" "black" "degradated" "not underlined" "49" NA
1228.866 1.662 1626411 "Exp.Trial" 244 "[[240,295,\"NA\",\"NA\"]]" 244 "Szene" "black" "degradated" "underlined" "23" NA
1232.152 1.98 1629697 "Exp.Trial" 245 "[[228,283,\"NA\",\"NA\"]]" 245 "Pferd" "blue" "non-degradated" "not underlined" "282" NA
1235.723 2.161 1633268 "Exp.Trial" 246 "[[277,332,\"NA\",\"NA\"]]" 246 "Dunst" "black" "non-degradated" "not underlined" "150" 0
1244.061 1.686 1641606 "Exp.Trial" 247 "[[426,481,\"NA\",\"NA\"]]" 247 "Müsli" "blue" "degradated" "not underlined" "210" 0
1251.923 1.86 1649468 "Exp.Trial" 248 "[[339,394,\"NA\",\"NA\"]]" 248 "Insel" "black" "degradated" "underlined" "2" NA
1255.333 2.616 1652878 "Exp.Trial" 249 "[[401,456,\"NA\",\"NA\"]]" 249 "Agent" "blue" "non-degradated" "not underlined" "291" NA
1259.362 1.8 1656907 "Exp.Trial" 250 "[[513,568,\"NA\",\"NA\"]]" 250 "Quint" "blue" "non-degradated" "underlined" "265" NA
1262.768 2.251 1660313 "Exp.Trial" 251 "[[252,307,\"NA\",\"NA\"]]" 251 "Zwerg" "black" "non-degradated" "underlined" "93" NA
1266.697 1.244 1664242 "Exp.Trial" 252 "[[228,283,\"NA\",\"NA\"]]" 252 "Henne" "blue" "non-degradated" "not underlined" "320" NA
1269.531 1.847 1667076 "Exp.Trial" 253 "[[252,307,\"NA\",\"NA\"]]" 253 "Bitte" "blue" "degradated" "not underlined" "235" NA
1272.893 2.127 1670438 "Exp.Trial" 254 "[[438,493,\"NA\",\"NA\"]]" 254 "Hagel" "blue" "degradated" "not underlined" "227" NA
1277.365 2.731 1674910 "Exp.Trial" 255 "[[252,307,\"NA\",\"NA\"]]" 255 "Mappe" "black" "degradated" "underlined" "32" NA
1281.673 1.815 1679218 "Exp.Trial" 256 "[[352,407,\"NA\",\"NA\"]]" 256 "Radio" "black" "non-degradated" "underlined" "109" NA
1285.087 2.14 1682632 "Exp.Trial" 257 "[[339,394,\"NA\",\"NA\"]]" 257 "Opfer" "black" "non-degradated" "not underlined" "157" NA
1288.829 2.992 1686374 "Exp.Trial" 258 "[[277,332,\"NA\",\"NA\"]]" 258 "Gerät" "black" "non-degradated" "underlined" "119" NA
1293.357 2.079 1690902 "Exp.Trial" 259 "[[215,270,\"NA\",\"NA\"]]" 259 "Tarif" "black" "non-degradated" "underlined" "90" NA
1297.022 1.797 1694567 "Exp.Trial" 260 "[[389,444,\"NA\",\"NA\"]]" 260 "Logik" "black" "non-degradated" "not underlined" "144" NA
1300.374 1.572 1697919 "Exp.Trial" 261 "[[265,320,\"NA\",\"NA\"]]" 261 "Nugat" "black" "degradated" "not underlined" "55" NA
1303.402 2.049 1700947 "Exp.Trial" 262 "[[302,357,\"NA\",\"NA\"]]" 262 "Feile" "blue" "degradated" "underlined" "185" NA
1307.091 1.504 1704636 "Exp.Trial" 263 "[[575,630,\"NA\",\"NA\"]]" 263 "Blitz" "black" "non-degradated" "not underlined" "121" NA
1310.157 1.974 1707702 "Exp.Trial" 264 "[[525,580,\"NA\",\"NA\"]]" 264 "Kakao" "blue" "degradated" "not underlined" "208" NA
1313.536 1.816 1711081 "Exp.Trial" 265 "[[401,456,\"NA\",\"NA\"]]" 265 "Felge" "black" "non-degradated" "not underlined" "160" NA
1317.553 1.342 1715098 "Exp.Trial" 266 "[[339,394,\"NA\",\"NA\"]]" 266 "Seide" "black" "non-degradated" "not underlined" "152" NA
1321.337 2.16 1718882 "Exp.Trial" 267 "[[376,431,\"NA\",\"NA\"]]" 267 "Zitat" "blue" "non-degradated" "not underlined" "311" NA
1325.088 3.275 1722633 "Exp.Trial" 268 "[[550,605,\"NA\",\"NA\"]]" 268 "König" "blue" "degradated" "underlined" "178" NA
1329.736 2.109 1727281 "Exp.Trial" 269 "[[228,283,\"NA\",\"NA\"]]" 269 "Basar" "blue" "degradated" "not underlined" "203" NA
1333.471 1.56 1731016 "Exp.Trial" 270 "[[252,307,\"NA\",\"NA\"]]" 270 "Klotz" "black" "non-degradated" "not underlined" "136" NA
1336.393 1.76 1733938 "Exp.Trial" 271 "[[314,369,\"NA\",\"NA\"]]" 271 "Pedal" "blue" "degradated" "not underlined" "214" NA
1339.599 2.927 1737144 "Exp.Trial" 272 "[[513,568,\"NA\",\"NA\"]]" 272 "Tolle" "blue" "non-degradated" "not underlined" "300" NA
1344.131 2.35 1741676 "Exp.Trial" 273 "[[265,320,\"NA\",\"NA\"]]" 273 "Summe" "black" "non-degradated" "not underlined" "123" NA
1348.6 1.951 1746145 "Exp.Trial" 274 "[[228,283,\"NA\",\"NA\"]]" 274 "Onkel" "black" "degradated" "underlined" "35" NA
1352.391 1.929 1749936 "Exp.Trial" 275 "[[302,357,\"NA\",\"NA\"]]" 275 "Delta" "black" "non-degradated" "not underlined" "131" NA
1357.23 1.636 1754775 "Exp.Trial" 276 "[[265,320,\"NA\",\"NA\"]]" 276 "Natur" "blue" "non-degradated" "underlined" "246" NA
1360.244 2.054 1757789 "Exp.Trial" 277 "[[290,345,\"NA\",\"NA\"]]" 277 "Motiv" "black" "degradated" "underlined" "13" NA
1364.486 1.633 1762031 "Exp.Trial" 278 "[[426,481,\"NA\",\"NA\"]]" 278 "Nudel" "black" "non-degradated" "not underlined" "154" NA
1367.659 1.589 1765204 "Exp.Trial" 279 "[[240,295,\"NA\",\"NA\"]]" 279 "Zecke" "blue" "degradated" "underlined" "170" NA
1370.725 1.683 1768270 "Exp.Trial" 280 "[[352,407,\"NA\",\"NA\"]]" 280 "Optik" "blue" "non-degradated" "not underlined" "301" NA
1373.999 1.487 1771544 "Exp.Trial" 281 "[[228,283,\"NA\",\"NA\"]]" 281 "Übung" "black" "non-degradated" "underlined" "100" NA
1377.356 1.514 1774901 "Exp.Trial" 282 "[[228,283,\"NA\",\"NA\"]]" 282 "Genre" "blue" "non-degradated" "underlined" "249" NA
1380.284 1.886 1777829 "Exp.Trial" 283 "[[525,580,\"NA\",\"NA\"]]" 283 "Polka" "black" "non-degradated" "underlined" "102" NA
1383.617 1.642 1781162 "Exp.Trial" 284 "[[401,456,\"NA\",\"NA\"]]" 284 "Weihe" "blue" "non-degradated" "underlined" "264" NA
1386.876 1.559 1784421 "Exp.Trial" 285 "[[228,283,\"NA\",\"NA\"]]" 285 "Radar" "blue" "non-degradated" "not underlined" "306" NA
1389.896 1.696 1787441 "Exp.Trial" 286 "[[352,407,\"NA\",\"NA\"]]" 286 "Zwang" "blue" "non-degradated" "underlined" "272" NA
1392.998 2.952 1790543 "Exp.Trial" 287 "[[339,394,\"NA\",\"NA\"]]" 287 "Drill" "black" "non-degradated" "not underlined" "128" NA
1397.377 1.77 1794922 "Exp.Trial" 288 "[[252,307,\"NA\",\"NA\"]]" 288 "Motor" "black" "non-degradated" "underlined" "89" NA
1400.67 2.774 1798215 "Exp.Trial" 289 "[[339,394,\"NA\",\"NA\"]]" 289 "Fauna" "black" "degradated" "not underlined" "68" NA
1405.045 1.682 1802590 "Exp.Trial" 290 "[[277,332,\"NA\",\"NA\"]]" 290 "Mensa" "black" "non-degradated" "underlined" "83" NA
1408.277 1.826 1805822 "Exp.Trial" 291 "[[228,283,\"NA\",\"NA\"]]" 291 "Ölung" "black" "degradated" "underlined" "14" NA
1411.532 2.173 1809077 "Exp.Trial" 292 "[[290,345,\"NA\",\"NA\"]]" 292 "Sitte" "black" "non-degradated" "not underlined" "151" NA
1415.268 1.831 1812813 "Exp.Trial" 293 "[[265,320,\"NA\",\"NA\"]]" 293 "Sünde" "blue" "degradated" "not underlined" "207" NA
1418.714 2.573 1816259 "Exp.Trial" 294 "[[302,357,\"NA\",\"NA\"]]" 294 "Treff" "blue" "non-degradated" "underlined" "270" NA
1422.765 1.3 1820310 "Exp.Trial" 295 "[[265,320,\"NA\",\"NA\"]]" 295 "Tante" "blue" "degradated" "not underlined" "215" NA
1425.679 2.022 1823224 "Exp.Trial" 296 "[[513,568,\"NA\",\"NA\"]]" 296 "Modul" "black" "non-degradated" "not underlined" "127" NA
1429.294 1.362 1826839 "Exp.Trial" 297 "[[376,431,\"NA\",\"NA\"]]" 297 "Wolle" "black" "non-degradated" "not underlined" "159" 0
1435.833 2.485 1833378 "Exp.Trial" 298 "[[203,258,\"NA\",\"NA\"]]" 298 "Thron" "blue" "non-degradated" "not underlined" "307" NA
1440.555 1.937 1838100 "Exp.Trial" 299 "[[228,283,\"NA\",\"NA\"]]" 299 "Runde" "black" "non-degradated" "underlined" "108" NA
1444.1 2.189 1841645 "Exp.Trial" 300 "[[265,320,\"NA\",\"NA\"]]" 300 "Beize" "black" "degradated" "not underlined" "58" NA
1447.803 2.918 1845348 "Exp.Trial" 301 "[[252,307,\"NA\",\"NA\"]]" 301 "Motte" "black" "degradated" "not underlined" "63" 0
1456.009 1.896 1853554 "Exp.Trial" 302 "[[538,593,\"NA\",\"NA\"]]" 302 "Gramm" "blue" "non-degradated" "underlined" "279" NA
1459.425 2.261 1856970 "Exp.Trial" 303 "[[389,444,\"NA\",\"NA\"]]" 303 "Obhut" "black" "degradated" "underlined" "40" NA
1463.263 2.675 1860808 "Exp.Trial" 304 "[[476,531,\"NA\",\"NA\"]]" 304 "Lunge" "black" "non-degradated" "underlined" "81" NA
1467.518 2.986 1865063 "Exp.Trial" 305 "[[277,332,\"NA\",\"NA\"]]" 305 "Zeile" "black" "non-degradated" "underlined" "88" NA
1472.117 1.274 1869662 "Exp.Trial" 306 "[[277,332,\"NA\",\"NA\"]]" 306 "Datei" "black" "non-degradated" "not underlined" "140" 0
1478.205 1.389 1875750 "Exp.Trial" 307 "[[364,419,\"NA\",\"NA\"]]" 307 "Figur" "blue" "degradated" "not underlined" "232" NA
1481.232 1.648 1878777 "Exp.Trial" 308 "[[228,283,\"NA\",\"NA\"]]" 308 "Stern" "blue" "degradated" "not underlined" "237" NA
1484.499 2.634 1882044 "Exp.Trial" 309 "[[376,431,\"NA\",\"NA\"]]" 309 "Abbau" "blue" "non-degradated" "not underlined" "302" NA
1489.318 2.125 1886863 "Exp.Trial" 310 "[[376,431,\"NA\",\"NA\"]]" 310 "Party" "blue" "degradated" "underlined" "184" NA
1492.809 1.956 1890354 "Exp.Trial" 311 "[[352,407,\"NA\",\"NA\"]]" 311 "Dogma" "black" "degradated" "not underlined" "67" NA
1496.142 2.487 1893687 "Exp.Trial" 312 "[[277,332,\"NA\",\"NA\"]]" 312 "Blech" "black" "degradated" "underlined" "36" NA
1501.047 1.704 1898592 "Exp.Trial" 313 "[[240,295,\"NA\",\"NA\"]]" 313 "Amsel" "black" "non-degradated" "not underlined" "137" NA
1504.127 2.63 1901672 "Exp.Trial" 314 "[[215,270,\"NA\",\"NA\"]]" 314 "Linse" "blue" "degradated" "underlined" "162" NA
1508.303 3.223 1905848 "Exp.Trial" 315 "[[302,357,\"NA\",\"NA\"]]" 315 "Anbau" "blue" "non-degradated" "underlined" "250" 0
1518.785 1.498 1916330 "Exp.Trial" 316 "[[352,407,\"NA\",\"NA\"]]" 316 "Lachs" "black" "degradated" "underlined" "24" NA
1521.712 1.473 1919257 "Exp.Trial" 317 "[[314,369,\"NA\",\"NA\"]]" 317 "Biest" "black" "non-degradated" "underlined" "114" NA
1524.72 1.523 1922265 "Exp.Trial" 318 "[[302,357,\"NA\",\"NA\"]]" 318 "Notiz" "blue" "non-degradated" "underlined" "242" NA
1527.752 1.824 1925297 "Exp.Trial" 319 "[[252,307,\"NA\",\"NA\"]]" 319 "Fehde" "blue" "degradated" "underlined" "176" NA
1532.428 1.529 1929973 "Exp.Trial" 320 "[[314,369,\"NA\",\"NA\"]]" 320 "Feder" "blue" "degradated" "not underlined" "231" NA
