"onset" "duration" "sample" "trial_type" "eventIdentifier" "event_nr" "aoi" "trial" "target_word" "color" "mask" "underlining" "sentenceNr" "response"
0 1.21 821810 "Exp.Trial" "MASKSCREEN_START_Jubel_E_LET_N_240" 1 "[[229,306,384,384]]" 1 "Jubel" "blue" "non-degradated" "not underlined" "12" NA
2.947 1.636 824757 "Exp.Trial" "MASKSCREEN_START_Obhut_E_LET_N_389" 2 "[[378,455,384,384]]" 2 "Obhut" "blue" "non-degradated" "not underlined" "40" NA
6.354 1.505 828164 "Exp.Trial" "MASKSCREEN_START_Dämon_K_LET_N_265" 3 "[[254,331,384,384]]" 3 "Dämon" "black" "non-degradated" "not underlined" "192" NA
9.459 1.948 831269 "Exp.Trial" "MASKSCREEN_START_Liste_E_DEG_N_426" 4 "[[415,492,384,384]]" 4 "Liste" "blue" "degradated" "not underlined" "99" NA
12.99 1.363 834800 "Exp.Trial" "MASKSCREEN_START_Karat_E_LET_N_339" 5 "[[328,405,384,384]]" 5 "Karat" "blue" "non-degradated" "not underlined" "37" NA
15.977 1.485 837787 "Exp.Trial" "MASKSCREEN_START_Büste_E_LET_N_302" 6 "[[291,368,384,384]]" 6 "Büste" "blue" "non-degradated" "not underlined" "25" NA
19.032 1.282 840842 "Exp.Trial" "MASKSCREEN_START_Rippe_E_LET_U_327" 7 "[[316,393,384,384]]" 7 "Rippe" "blue" "non-degradated" "underlined" "56" NA
22.059 1.397 843869 "Exp.Trial" "MASKSCREEN_START_Gicht_E_LET_N_401" 8 "[[390,467,384,384]]" 8 "Gicht" "blue" "non-degradated" "not underlined" "33" NA
25.17 1.244 846980 "Exp.Trial" "MASKSCREEN_START_Nagel_E_LET_U_376" 9 "[[365,442,384,384]]" 9 "Nagel" "blue" "non-degradated" "underlined" "65" NA
28.154 1.806 849964 "Exp.Trial" "MASKSCREEN_START_Abbau_K_DEG_U_376" 10 "[[365,442,384,384]]" 10 "Abbau" "black" "degradated" "underlined" "302" NA
31.465 1.5 853275 "Exp.Trial" "MASKSCREEN_START_Nudel_E_DEG_U_426" 11 "[[415,492,384,384]]" 11 "Nudel" "blue" "degradated" "underlined" "154" NA
34.545 2.893 856355 "Exp.Trial" "MASKSCREEN_START_Quast_E_LET_U_550" 12 "[[539,616,384,384]]" 12 "Quast" "blue" "non-degradated" "underlined" "61" NA
39.106 1.603 860916 "Exp.Trial" "MASKSCREEN_START_Lauch_K_LET_N_500" 13 "[[489,566,384,384]]" 13 "Lauch" "black" "non-degradated" "not underlined" "197" NA
42.245 1.589 864055 "Exp.Trial" "MASKSCREEN_START_Miene_E_DEG_U_265" 14 "[[254,331,384,384]]" 14 "Miene" "blue" "degradated" "underlined" "155" 0
51.273 1.132 873083 "Exp.Trial" "MASKSCREEN_START_Wuchs_E_DEG_N_228" 15 "[[217,294,384,384]]" 15 "Wuchs" "blue" "degradated" "not underlined" "85" 0
62.479 1.27 884289 "Exp.Trial" "MASKSCREEN_START_Sumpf_K_LET_N_252" 16 "[[241,318,384,384]]" 16 "Sumpf" "black" "non-degradated" "not underlined" "182" NA
65.42 1.068 887230 "Exp.Trial" "MASKSCREEN_START_Raser_E_LET_N_290" 17 "[[279,356,384,384]]" 17 "Raser" "blue" "non-degradated" "not underlined" "3" NA
68.155 2.017 889965 "Exp.Trial" "MASKSCREEN_START_Würze_K_DEG_N_277" 18 "[[266,343,384,384]]" 18 "Würze" "black" "degradated" "not underlined" "263" NA
71.746 2.331 893556 "Exp.Trial" "MASKSCREEN_START_Juwel_E_DEG_U_426" 19 "[[415,492,384,384]]" 19 "Juwel" "blue" "degradated" "underlined" "142" NA
75.596 1.958 897406 "Exp.Trial" "MASKSCREEN_START_Felge_E_DEG_U_401" 20 "[[390,467,384,384]]" 20 "Felge" "blue" "degradated" "underlined" "160" NA
79.154 1.422 900964 "Exp.Trial" "MASKSCREEN_START_Manko_K_LET_N_265" 21 "[[254,331,384,384]]" 21 "Manko" "black" "non-degradated" "not underlined" "173" 0
86.757 1.258 908567 "Exp.Trial" "MASKSCREEN_START_Spott_K_LET_N_265" 22 "[[254,331,384,384]]" 22 "Spott" "black" "non-degradated" "not underlined" "180" 0
94.733 1.69 916543 "Exp.Trial" "MASKSCREEN_START_Beize_E_LET_U_265" 23 "[[254,331,384,384]]" 23 "Beize" "blue" "non-degradated" "underlined" "58" NA
98.014 1.373 919824 "Exp.Trial" "MASKSCREEN_START_Henne_K_DEG_U_228" 24 "[[217,294,384,384]]" 24 "Henne" "black" "degradated" "underlined" "320" 0
106.025 1.645 927835 "Exp.Trial" "MASKSCREEN_START_Lette_E_DEG_N_228" 25 "[[217,294,384,384]]" 25 "Lette" "blue" "degradated" "not underlined" "96" 0
114.251 1.701 936061 "Exp.Trial" "MASKSCREEN_START_Ahorn_K_LET_N_228" 26 "[[217,294,384,384]]" 26 "Ahorn" "black" "non-degradated" "not underlined" "193" NA
117.384 2.187 939194 "Exp.Trial" "MASKSCREEN_START_Kuhle_E_LET_U_277" 27 "[[266,343,384,384]]" 27 "Kuhle" "blue" "non-degradated" "underlined" "45" NA
121.473 1.927 943283 "Exp.Trial" "MASKSCREEN_START_Beleg_K_LET_U_327" 28 "[[316,393,384,384]]" 28 "Beleg" "black" "non-degradated" "underlined" "212" NA
124.959 1.852 946769 "Exp.Trial" "MASKSCREEN_START_Radar_K_DEG_U_228" 29 "[[217,294,384,384]]" 29 "Radar" "black" "degradated" "underlined" "306" NA
128.185 1.959 949995 "Exp.Trial" "MASKSCREEN_START_Miliz_E_DEG_N_290" 30 "[[279,356,384,384]]" 30 "Miliz" "blue" "degradated" "not underlined" "120" NA
131.696 1.967 953506 "Exp.Trial" "MASKSCREEN_START_Zeile_E_DEG_N_277" 31 "[[266,343,384,384]]" 31 "Zeile" "blue" "degradated" "not underlined" "88" NA
135.202 1.308 957012 "Exp.Trial" "MASKSCREEN_START_Sünde_K_LET_U_265" 32 "[[254,331,384,384]]" 32 "Sünde" "black" "non-degradated" "underlined" "207" 0
142.762 1.555 964572 "Exp.Trial" "MASKSCREEN_START_Tolle_K_DEG_U_513" 33 "[[502,579,384,384]]" 33 "Tolle" "black" "degradated" "underlined" "300" 0
151.047 1.138 972857 "Exp.Trial" "MASKSCREEN_START_Übung_E_DEG_N_228" 34 "[[217,294,384,384]]" 34 "Übung" "blue" "degradated" "not underlined" "100" NA
153.776 1.707 975586 "Exp.Trial" "MASKSCREEN_START_Gramm_K_DEG_N_538" 35 "[[527,604,384,384]]" 35 "Gramm" "black" "degradated" "not underlined" "279" NA
156.927 2.019 978737 "Exp.Trial" "MASKSCREEN_START_Atoll_E_DEG_N_513" 36 "[[502,579,384,384]]" 36 "Atoll" "blue" "degradated" "not underlined" "98" NA
160.48 1.143 982290 "Exp.Trial" "MASKSCREEN_START_Figur_K_LET_U_364" 37 "[[353,430,384,384]]" 37 "Figur" "black" "non-degradated" "underlined" "232" NA
163.294 1.174 985104 "Exp.Trial" "MASKSCREEN_START_Mähre_K_LET_N_401" 38 "[[390,467,384,384]]" 38 "Mähre" "black" "non-degradated" "not underlined" "167" NA
166.075 1.525 987885 "Exp.Trial" "MASKSCREEN_START_Pferd_K_DEG_U_228" 39 "[[217,294,384,384]]" 39 "Pferd" "black" "degradated" "underlined" "282" NA
169.102 1.65 990912 "Exp.Trial" "MASKSCREEN_START_Pulle_E_LET_U_339" 40 "[[328,405,384,384]]" 40 "Pulle" "blue" "non-degradated" "underlined" "48" NA
172.229 1.425 994039 "Exp.Trial" "MASKSCREEN_START_Yacht_E_LET_N_215" 41 "[[204,281,384,384]]" 41 "Yacht" "blue" "non-degradated" "not underlined" "28" NA
175.151 1.481 996961 "Exp.Trial" "MASKSCREEN_START_Hafer_K_LET_N_203" 42 "[[192,269,384,384]]" 42 "Hafer" "black" "non-degradated" "not underlined" "177" NA
178.097 1.556 999907 "Exp.Trial" "MASKSCREEN_START_Organ_K_DEG_U_339" 43 "[[328,405,384,384]]" 43 "Organ" "black" "degradated" "underlined" "305" NA
181.271 1.614 1003081 "Exp.Trial" "MASKSCREEN_START_Puder_K_LET_N_389" 44 "[[378,455,384,384]]" 44 "Puder" "black" "non-degradated" "not underlined" "181" NA
184.297 1.819 1006107 "Exp.Trial" "MASKSCREEN_START_Dekan_E_LET_N_265" 45 "[[254,331,384,384]]" 45 "Dekan" "blue" "non-degradated" "not underlined" "11" 0
192.642 0.974 1014452 "Exp.Trial" "MASKSCREEN_START_Summe_E_DEG_U_265" 46 "[[254,331,384,384]]" 46 "Summe" "blue" "degradated" "underlined" "123" NA
195.106 1.382 1016916 "Exp.Trial" "MASKSCREEN_START_Drama_K_DEG_U_290" 47 "[[279,356,384,384]]" 47 "Drama" "black" "degradated" "underlined" "314" NA
198.031 1.395 1019841 "Exp.Trial" "MASKSCREEN_START_Probe_E_DEG_N_240" 48 "[[229,306,384,384]]" 48 "Probe" "blue" "degradated" "not underlined" "117" NA
200.893 1.163 1022703 "Exp.Trial" "MASKSCREEN_START_Herde_K_LET_U_277" 49 "[[266,343,384,384]]" 49 "Herde" "black" "non-degradated" "underlined" "204" NA
203.775 2.056 1025585 "Exp.Trial" "MASKSCREEN_START_Torte_E_DEG_U_240" 50 "[[229,306,384,384]]" 50 "Torte" "blue" "degradated" "underlined" "149" 0
212.357 1.731 1034167 "Exp.Trial" "MASKSCREEN_START_König_K_LET_N_550" 51 "[[539,616,384,384]]" 51 "König" "black" "non-degradated" "not underlined" "178" NA
215.65 1.807 1037460 "Exp.Trial" "MASKSCREEN_START_Taube_E_LET_U_290" 52 "[[279,356,384,384]]" 52 "Taube" "blue" "non-degradated" "underlined" "41" NA
219.082 1.927 1040892 "Exp.Trial" "MASKSCREEN_START_Wange_K_DEG_N_401" 53 "[[390,467,384,384]]" 53 "Wange" "black" "degradated" "not underlined" "256" NA
222.434 2.167 1044244 "Exp.Trial" "MASKSCREEN_START_Blitz_E_DEG_U_575" 54 "[[564,641,384,384]]" 54 "Blitz" "blue" "degradated" "underlined" "121" NA
226.16 1.62 1047970 "Exp.Trial" "MASKSCREEN_START_Delta_E_DEG_U_302" 55 "[[291,368,384,384]]" 55 "Delta" "blue" "degradated" "underlined" "131" NA
229.186 2.346 1050996 "Exp.Trial" "MASKSCREEN_START_Garde_E_LET_N_364" 56 "[[353,430,384,384]]" 56 "Garde" "blue" "non-degradated" "not underlined" "39" NA
233.206 1.715 1055016 "Exp.Trial" "MASKSCREEN_START_Eimer_K_LET_U_538" 57 "[[527,604,384,384]]" 57 "Eimer" "black" "non-degradated" "underlined" "216" NA
236.64 1.524 1058450 "Exp.Trial" "MASKSCREEN_START_Baske_E_LET_U_228" 58 "[[217,294,384,384]]" 58 "Baske" "blue" "non-degradated" "underlined" "78" 0
243.615 1.398 1065425 "Exp.Trial" "MASKSCREEN_START_Biest_E_DEG_N_314" 59 "[[303,380,384,384]]" 59 "Biest" "blue" "degradated" "not underlined" "114" NA
246.537 1.849 1068347 "Exp.Trial" "MASKSCREEN_START_Klaps_E_LET_U_401" 60 "[[390,467,384,384]]" 60 "Klaps" "blue" "non-degradated" "underlined" "70" NA
250.036 1.651 1071846 "Exp.Trial" "MASKSCREEN_START_Quart_E_DEG_U_414" 61 "[[403,480,384,384]]" 61 "Quart" "blue" "degradated" "underlined" "146" NA
253.303 1.958 1075113 "Exp.Trial" "MASKSCREEN_START_Tabak_K_DEG_U_290" 62 "[[279,356,384,384]]" 62 "Tabak" "black" "degradated" "underlined" "316" NA
256.886 2.025 1078696 "Exp.Trial" "MASKSCREEN_START_Bogen_K_LET_U_401" 63 "[[390,467,384,384]]" 63 "Bogen" "black" "non-degradated" "underlined" "221" NA
260.326 1.802 1082136 "Exp.Trial" "MASKSCREEN_START_Hocke_K_DEG_U_265" 64 "[[254,331,384,384]]" 64 "Hocke" "black" "degradated" "underlined" "308" NA
263.593 2.137 1085403 "Exp.Trial" "MASKSCREEN_START_Kutte_E_LET_N_240" 65 "[[229,306,384,384]]" 65 "Kutte" "blue" "non-degradated" "not underlined" "9" 0
272.241 1.314 1094051 "Exp.Trial" "MASKSCREEN_START_Eifer_E_DEG_N_376" 66 "[[365,442,384,384]]" 66 "Eifer" "blue" "degradated" "not underlined" "84" NA
275.095 1.65 1096905 "Exp.Trial" "MASKSCREEN_START_Abruf_E_LET_U_389" 67 "[[378,455,384,384]]" 67 "Abruf" "blue" "non-degradated" "underlined" "71" NA
278.129 2.572 1099939 "Exp.Trial" "MASKSCREEN_START_Zobel_E_DEG_U_290" 68 "[[279,356,384,384]]" 68 "Zobel" "blue" "degradated" "underlined" "158" NA
282.444 2.012 1104254 "Exp.Trial" "MASKSCREEN_START_Achse_K_LET_N_252" 69 "[[241,318,384,384]]" 69 "Achse" "black" "non-degradated" "not underlined" "172" 0
291.293 1.679 1113103 "Exp.Trial" "MASKSCREEN_START_Psalm_E_DEG_N_215" 70 "[[204,281,384,384]]" 70 "Psalm" "blue" "degradated" "not underlined" "118" NA
294.499 1.302 1116309 "Exp.Trial" "MASKSCREEN_START_Vogel_K_LET_U_228" 71 "[[217,294,384,384]]" 71 "Vogel" "black" "non-degradated" "underlined" "206" NA
298.144 1.27 1119954 "Exp.Trial" "MASKSCREEN_START_Zeche_E_DEG_N_277" 72 "[[266,343,384,384]]" 72 "Zeche" "blue" "degradated" "not underlined" "82" NA
301.07 1.918 1122880 "Exp.Trial" "MASKSCREEN_START_Polka_E_DEG_N_525" 73 "[[514,591,384,384]]" 73 "Polka" "blue" "degradated" "not underlined" "102" NA
304.547 1.929 1126357 "Exp.Trial" "MASKSCREEN_START_Hülle_K_DEG_U_252" 74 "[[241,318,384,384]]" 74 "Hülle" "black" "degradated" "underlined" "294" NA
308.267 1.272 1130077 "Exp.Trial" "MASKSCREEN_START_Notiz_K_DEG_N_302" 75 "[[291,368,384,384]]" 75 "Notiz" "black" "degradated" "not underlined" "242" NA
310.982 2.391 1132792 "Exp.Trial" "MASKSCREEN_START_Sühne_E_LET_N_748" 76 "[[737,814,384,384]]" 76 "Sühne" "blue" "non-degradated" "not underlined" "18" 0
322.167 1.611 1143977 "Exp.Trial" "MASKSCREEN_START_Sturz_K_LET_U_228" 77 "[[217,294,384,384]]" 77 "Sturz" "black" "non-degradated" "underlined" "219" NA
325.44 2 1147250 "Exp.Trial" "MASKSCREEN_START_Dicke_E_LET_U_314" 78 "[[303,380,384,384]]" 78 "Dicke" "blue" "non-degradated" "underlined" "43" 0
334.032 1.203 1155842 "Exp.Trial" "MASKSCREEN_START_Motiv_E_LET_N_290" 79 "[[279,356,384,384]]" 79 "Motiv" "blue" "non-degradated" "not underlined" "13" NA
336.997 1.228 1158807 "Exp.Trial" "MASKSCREEN_START_Kelch_E_LET_N_327" 80 "[[316,393,384,384]]" 80 "Kelch" "blue" "non-degradated" "not underlined" "8" NA
339.865 1.856 1161675 "Exp.Trial" "MASKSCREEN_START_Daune_E_DEG_N_327" 81 "[[316,393,384,384]]" 81 "Daune" "blue" "degradated" "not underlined" "110" NA
343.463 1.597 1165273 "Exp.Trial" "MASKSCREEN_START_Stamm_K_DEG_N_414" 82 "[[403,480,384,384]]" 82 "Stamm" "black" "degradated" "not underlined" "274" NA
346.795 1.582 1168605 "Exp.Trial" "MASKSCREEN_START_Matte_E_DEG_U_240" 83 "[[229,306,384,384]]" 83 "Matte" "blue" "degradated" "underlined" "143" NA
349.903 1.391 1171713 "Exp.Trial" "MASKSCREEN_START_Votum_K_DEG_U_265" 84 "[[254,331,384,384]]" 84 "Votum" "black" "degradated" "underlined" "317" NA
352.961 1.494 1174771 "Exp.Trial" "MASKSCREEN_START_Twist_E_LET_U_314" 85 "[[303,380,384,384]]" 85 "Twist" "blue" "non-degradated" "underlined" "79" NA
356.129 1.551 1177939 "Exp.Trial" "MASKSCREEN_START_Feder_K_LET_U_314" 86 "[[303,380,384,384]]" 86 "Feder" "black" "non-degradated" "underlined" "231" NA
359.109 1.839 1180919 "Exp.Trial" "MASKSCREEN_START_Party_K_LET_N_376" 87 "[[365,442,384,384]]" 87 "Party" "black" "non-degradated" "not underlined" "184" NA
362.381 1.487 1184191 "Exp.Trial" "MASKSCREEN_START_Motte_E_LET_U_252" 88 "[[241,318,384,384]]" 88 "Motte" "blue" "non-degradated" "underlined" "63" NA
365.422 2.203 1187232 "Exp.Trial" "MASKSCREEN_START_Sigma_K_LET_U_302" 89 "[[291,368,384,384]]" 89 "Sigma" "black" "non-degradated" "underlined" "234" NA
369.146 2.558 1190956 "Exp.Trial" "MASKSCREEN_START_Kokon_E_LET_U_228" 90 "[[217,294,384,384]]" 90 "Kokon" "blue" "non-degradated" "underlined" "52" NA
373.401 1.843 1195211 "Exp.Trial" "MASKSCREEN_START_Münze_E_DEG_N_352" 91 "[[341,418,384,384]]" 91 "Münze" "blue" "degradated" "not underlined" "94" NA
376.88 2.402 1198690 "Exp.Trial" "MASKSCREEN_START_Balte_K_LET_U_265" 92 "[[254,331,384,384]]" 92 "Balte" "black" "non-degradated" "underlined" "239" 0
385.37 1.511 1207180 "Exp.Trial" "MASKSCREEN_START_Viper_E_LET_N_364" 93 "[[353,430,384,384]]" 93 "Viper" "blue" "non-degradated" "not underlined" "19" NA
388.231 1.589 1210041 "Exp.Trial" "MASKSCREEN_START_Datum_E_DEG_N_228" 94 "[[217,294,384,384]]" 94 "Datum" "blue" "degradated" "not underlined" "107" NA
391.451 1.349 1213261 "Exp.Trial" "MASKSCREEN_START_Lücke_E_LET_U_327" 95 "[[316,393,384,384]]" 95 "Lücke" "blue" "non-degradated" "underlined" "80" NA
394.425 1.256 1216235 "Exp.Trial" "MASKSCREEN_START_Slawe_K_LET_N_277" 96 "[[266,343,384,384]]" 96 "Slawe" "black" "non-degradated" "not underlined" "171" NA
397.319 1.405 1219129 "Exp.Trial" "MASKSCREEN_START_Armee_K_DEG_U_290" 97 "[[279,356,384,384]]" 97 "Armee" "black" "degradated" "underlined" "284" NA
400.361 1.945 1222171 "Exp.Trial" "MASKSCREEN_START_Alter_K_DEG_U_228" 98 "[[217,294,384,384]]" 98 "Alter" "black" "degradated" "underlined" "296" NA
404.035 1.532 1225845 "Exp.Trial" "MASKSCREEN_START_Waffe_K_LET_N_389" 99 "[[378,455,384,384]]" 99 "Waffe" "black" "non-degradated" "not underlined" "174" NA
407.256 1.794 1229066 "Exp.Trial" "MASKSCREEN_START_Pizza_K_LET_U_277" 100 "[[266,343,384,384]]" 100 "Pizza" "black" "non-degradated" "underlined" "211" 0
415.077 1.272 1236887 "Exp.Trial" "MASKSCREEN_START_Seide_E_DEG_U_339" 101 "[[328,405,384,384]]" 101 "Seide" "blue" "degradated" "underlined" "152" NA
418.01 1.453 1239820 "Exp.Trial" "MASKSCREEN_START_Sippe_K_LET_N_414" 102 "[[403,480,384,384]]" 102 "Sippe" "black" "non-degradated" "not underlined" "188" NA
421.044 1.84 1242854 "Exp.Trial" "MASKSCREEN_START_Kreml_K_LET_U_488" 103 "[[477,554,384,384]]" 103 "Kreml" "black" "non-degradated" "underlined" "222" NA
424.656 1.414 1246466 "Exp.Trial" "MASKSCREEN_START_Union_E_LET_U_215" 104 "[[204,281,384,384]]" 104 "Union" "blue" "non-degradated" "underlined" "46" NA
428.851 1.499 1250661 "Exp.Trial" "MASKSCREEN_START_Stube_K_DEG_N_240" 105 "[[229,306,384,384]]" 105 "Stube" "black" "degradated" "not underlined" "273" NA
431.972 1.707 1253782 "Exp.Trial" "MASKSCREEN_START_Müsli_K_LET_U_426" 106 "[[415,492,384,384]]" 106 "Müsli" "black" "non-degradated" "underlined" "210" NA
435.244 1.467 1257054 "Exp.Trial" "MASKSCREEN_START_Beuge_E_LET_U_426" 107 "[[415,492,384,384]]" 107 "Beuge" "blue" "non-degradated" "underlined" "73" NA
438.217 1.499 1260027 "Exp.Trial" "MASKSCREEN_START_Gerät_E_DEG_N_277" 108 "[[266,343,384,384]]" 108 "Gerät" "blue" "degradated" "not underlined" "119" NA
441.318 2.034 1263128 "Exp.Trial" "MASKSCREEN_START_Kehle_K_DEG_U_277" 109 "[[266,343,384,384]]" 109 "Kehle" "black" "degradated" "underlined" "319" NA
444.736 1.96 1266546 "Exp.Trial" "MASKSCREEN_START_Stern_K_LET_U_228" 110 "[[217,294,384,384]]" 110 "Stern" "black" "non-degradated" "underlined" "237" 0
452.278 1.333 1274088 "Exp.Trial" "MASKSCREEN_START_Wunde_K_LET_U_290" 111 "[[279,356,384,384]]" 111 "Wunde" "black" "non-degradated" "underlined" "202" 0
459.813 1.507 1281623 "Exp.Trial" "MASKSCREEN_START_Zitat_K_DEG_U_376" 112 "[[365,442,384,384]]" 112 "Zitat" "black" "degradated" "underlined" "311" NA
462.759 1.699 1284569 "Exp.Trial" "MASKSCREEN_START_Spreu_K_LET_N_364" 113 "[[353,430,384,384]]" 113 "Spreu" "black" "non-degradated" "not underlined" "161" NA
466.091 1.677 1287901 "Exp.Trial" "MASKSCREEN_START_Wärme_E_LET_N_252" 114 "[[241,318,384,384]]" 114 "Wärme" "blue" "non-degradated" "not underlined" "21" 0
474.354 1.214 1296164 "Exp.Trial" "MASKSCREEN_START_Tapir_E_DEG_N_277" 115 "[[266,343,384,384]]" 115 "Tapir" "blue" "degradated" "not underlined" "92" 0
481.73 1.731 1303540 "Exp.Trial" "MASKSCREEN_START_Zinke_K_LET_N_240" 116 "[[229,306,384,384]]" 116 "Zinke" "black" "non-degradated" "not underlined" "168" NA
484.898 1.456 1306708 "Exp.Trial" "MASKSCREEN_START_Bitte_K_LET_U_252" 117 "[[241,318,384,384]]" 117 "Bitte" "black" "non-degradated" "underlined" "235" NA
487.911 1.504 1309721 "Exp.Trial" "MASKSCREEN_START_Agent_K_DEG_U_401" 118 "[[390,467,384,384]]" 118 "Agent" "black" "degradated" "underlined" "291" NA
490.832 1.648 1312642 "Exp.Trial" "MASKSCREEN_START_Lehne_K_LET_U_401" 119 "[[390,467,384,384]]" 119 "Lehne" "black" "non-degradated" "underlined" "224" 0
499.11 1.473 1320920 "Exp.Trial" "MASKSCREEN_START_Reuse_K_DEG_U_327" 120 "[[316,393,384,384]]" 120 "Reuse" "black" "degradated" "underlined" "315" NA
501.957 1.674 1323767 "Exp.Trial" "MASKSCREEN_START_Motor_E_DEG_N_252" 121 "[[241,318,384,384]]" 121 "Motor" "blue" "degradated" "not underlined" "89" NA
505.045 1.449 1326855 "Exp.Trial" "MASKSCREEN_START_Würde_E_DEG_N_376" 122 "[[365,442,384,384]]" 122 "Würde" "blue" "degradated" "not underlined" "104" NA
508.238 1.616 1330048 "Exp.Trial" "MASKSCREEN_START_Druck_E_LET_U_252" 123 "[[241,318,384,384]]" 123 "Druck" "blue" "non-degradated" "underlined" "75" NA
511.298 1.684 1333108 "Exp.Trial" "MASKSCREEN_START_Leere_K_DEG_U_600" 124 "[[589,666,384,384]]" 124 "Leere" "black" "degradated" "underlined" "290" NA
514.391 1.152 1336201 "Exp.Trial" "MASKSCREEN_START_Zecke_K_LET_N_240" 125 "[[229,306,384,384]]" 125 "Zecke" "black" "non-degradated" "not underlined" "170" NA
517.054 1.397 1338864 "Exp.Trial" "MASKSCREEN_START_Abend_E_LET_N_252" 126 "[[241,318,384,384]]" 126 "Abend" "blue" "non-degradated" "not underlined" "7" NA
520.16 1.42 1341970 "Exp.Trial" "MASKSCREEN_START_Natur_K_DEG_N_265" 127 "[[254,331,384,384]]" 127 "Natur" "black" "degradated" "not underlined" "246" NA
524.031 1.692 1345841 "Exp.Trial" "MASKSCREEN_START_Feger_K_DEG_U_240" 128 "[[229,306,384,384]]" 128 "Feger" "black" "degradated" "underlined" "285" 0
531.958 1.171 1353768 "Exp.Trial" "MASKSCREEN_START_Insel_E_LET_N_339" 129 "[[328,405,384,384]]" 129 "Insel" "blue" "non-degradated" "not underlined" "2" 0
540.234 1.235 1362044 "Exp.Trial" "MASKSCREEN_START_Götze_K_LET_N_488" 130 "[[477,554,384,384]]" 130 "Götze" "black" "non-degradated" "not underlined" "179" 0
547.43 1.835 1369240 "Exp.Trial" "MASKSCREEN_START_Gräte_K_DEG_N_240" 131 "[[229,306,384,384]]" 131 "Gräte" "black" "degradated" "not underlined" "243" NA
550.716 1.575 1372526 "Exp.Trial" "MASKSCREEN_START_Ratte_E_LET_U_339" 132 "[[328,405,384,384]]" 132 "Ratte" "blue" "non-degradated" "underlined" "49" 0
561.038 1.132 1382848 "Exp.Trial" "MASKSCREEN_START_Kakao_K_LET_U_525" 133 "[[514,591,384,384]]" 133 "Kakao" "black" "non-degradated" "underlined" "208" 0
569.648 1.232 1391458 "Exp.Trial" "MASKSCREEN_START_Minze_K_DEG_U_252" 134 "[[241,318,384,384]]" 134 "Minze" "black" "degradated" "underlined" "303" NA
572.462 1.137 1394272 "Exp.Trial" "MASKSCREEN_START_Pilot_E_DEG_U_265" 135 "[[254,331,384,384]]" 135 "Pilot" "blue" "degradated" "underlined" "132" NA
574.966 2.45 1396776 "Exp.Trial" "MASKSCREEN_START_Korps_K_DEG_U_550" 136 "[[539,616,384,384]]" 136 "Korps" "black" "degradated" "underlined" "309" NA
579.049 1.543 1400859 "Exp.Trial" "MASKSCREEN_START_Heide_K_LET_N_376" 137 "[[365,442,384,384]]" 137 "Heide" "black" "non-degradated" "not underlined" "191" NA
582.161 1.394 1403971 "Exp.Trial" "MASKSCREEN_START_Abzug_E_DEG_U_240" 138 "[[229,306,384,384]]" 138 "Abzug" "blue" "degradated" "underlined" "130" 0
590.359 1.101 1412169 "Exp.Trial" "MASKSCREEN_START_Falle_K_DEG_N_339" 139 "[[328,405,384,384]]" 139 "Falle" "black" "degradated" "not underlined" "244" NA
593.18 1.119 1414990 "Exp.Trial" "MASKSCREEN_START_Rache_K_LET_U_302" 140 "[[291,368,384,384]]" 140 "Rache" "black" "non-degradated" "underlined" "223" NA
595.723 1.135 1417533 "Exp.Trial" "MASKSCREEN_START_Beton_E_DEG_U_277" 141 "[[266,343,384,384]]" 141 "Beton" "blue" "degradated" "underlined" "125" NA
598.334 1.338 1420144 "Exp.Trial" "MASKSCREEN_START_Anruf_E_DEG_N_376" 142 "[[365,442,384,384]]" 142 "Anruf" "blue" "degradated" "not underlined" "91" NA
601.246 1.465 1423056 "Exp.Trial" "MASKSCREEN_START_Zwerg_E_DEG_N_252" 143 "[[241,318,384,384]]" 143 "Zwerg" "blue" "degradated" "not underlined" "93" NA
604.087 1.443 1425897 "Exp.Trial" "MASKSCREEN_START_Decke_E_DEG_N_414" 144 "[[403,480,384,384]]" 144 "Decke" "blue" "degradated" "not underlined" "86" NA
607.176 1.45 1428986 "Exp.Trial" "MASKSCREEN_START_Möbel_K_LET_U_290" 145 "[[279,356,384,384]]" 145 "Möbel" "black" "non-degradated" "underlined" "226" 0
614.921 1.705 1436731 "Exp.Trial" "MASKSCREEN_START_Bande_K_LET_U_364" 146 "[[353,430,384,384]]" 146 "Bande" "black" "non-degradated" "underlined" "209" NA
618.047 1.517 1439857 "Exp.Trial" "MASKSCREEN_START_Pfund_K_LET_N_426" 147 "[[415,492,384,384]]" 147 "Pfund" "black" "non-degradated" "not underlined" "164" NA
621.315 1.451 1443125 "Exp.Trial" "MASKSCREEN_START_Kugel_K_LET_N_314" 148 "[[303,380,384,384]]" 148 "Kugel" "black" "non-degradated" "not underlined" "186" NA
624.4 1.459 1446210 "Exp.Trial" "MASKSCREEN_START_Hagel_K_LET_U_438" 149 "[[427,504,384,384]]" 149 "Hagel" "black" "non-degradated" "underlined" "227" NA
627.5 1.701 1449310 "Exp.Trial" "MASKSCREEN_START_Thron_K_DEG_U_203" 150 "[[192,269,384,384]]" 150 "Thron" "black" "degradated" "underlined" "307" NA
630.561 2.032 1452371 "Exp.Trial" "MASKSCREEN_START_Mimik_K_DEG_U_352" 151 "[[341,418,384,384]]" 151 "Mimik" "black" "degradated" "underlined" "293" NA
634.105 1.77 1455915 "Exp.Trial" "MASKSCREEN_START_Sense_E_LET_U_252" 152 "[[241,318,384,384]]" 152 "Sense" "blue" "non-degradated" "underlined" "44" NA
637.583 2.232 1459393 "Exp.Trial" "MASKSCREEN_START_Tarif_E_DEG_N_215" 153 "[[204,281,384,384]]" 153 "Tarif" "blue" "degradated" "not underlined" "90" NA
641.316 1.832 1463126 "Exp.Trial" "MASKSCREEN_START_Zuzug_E_DEG_N_327" 154 "[[316,393,384,384]]" 154 "Zuzug" "blue" "degradated" "not underlined" "106" NA
645.73 1.835 1467540 "Exp.Trial" "MASKSCREEN_START_Kunde_E_LET_N_228" 155 "[[217,294,384,384]]" 155 "Kunde" "blue" "non-degradated" "not underlined" "20" NA
649.93 1.874 1471740 "Exp.Trial" "MASKSCREEN_START_Ärmel_E_LET_U_376" 156 "[[365,442,384,384]]" 156 "Ärmel" "blue" "non-degradated" "underlined" "76" NA
653.735 1.848 1475545 "Exp.Trial" "MASKSCREEN_START_Blech_E_LET_N_277" 157 "[[266,343,384,384]]" 157 "Blech" "blue" "non-degradated" "not underlined" "36" 0
662.417 1.297 1484227 "Exp.Trial" "MASKSCREEN_START_Mokka_K_DEG_U_302" 158 "[[291,368,384,384]]" 158 "Mokka" "black" "degradated" "underlined" "312" NA
665.459 1.727 1487269 "Exp.Trial" "MASKSCREEN_START_Messe_K_DEG_U_240" 159 "[[229,306,384,384]]" 159 "Messe" "black" "degradated" "underlined" "310" NA
668.611 1.419 1490421 "Exp.Trial" "MASKSCREEN_START_Griff_K_LET_U_364" 160 "[[353,430,384,384]]" 160 "Griff" "black" "non-degradated" "underlined" "225" NA
671.426 1.394 1493236 "Exp.Trial" "MASKSCREEN_START_Panda_E_LET_N_265" 161 "[[254,331,384,384]]" 161 "Panda" "blue" "non-degradated" "not underlined" "31" NA
674.415 1.322 1496225 "Exp.Trial" "MASKSCREEN_START_Boxer_K_DEG_U_314" 162 "[[303,380,384,384]]" 162 "Boxer" "black" "degradated" "underlined" "313" NA
677.235 1.813 1499045 "Exp.Trial" "MASKSCREEN_START_Gusto_K_LET_U_476" 163 "[[465,542,384,384]]" 163 "Gusto" "black" "non-degradated" "underlined" "220" 0
685.286 1.183 1507096 "Exp.Trial" "MASKSCREEN_START_Meise_E_DEG_N_426" 164 "[[415,492,384,384]]" 164 "Meise" "blue" "degradated" "not underlined" "105" NA
688.054 1.524 1509864 "Exp.Trial" "MASKSCREEN_START_Mappe_E_LET_N_252" 165 "[[241,318,384,384]]" 165 "Mappe" "blue" "non-degradated" "not underlined" "32" NA
691.062 1.383 1512872 "Exp.Trial" "MASKSCREEN_START_Beule_K_DEG_N_327" 166 "[[316,393,384,384]]" 166 "Beule" "black" "degradated" "not underlined" "266" NA
694.002 1.398 1515812 "Exp.Trial" "MASKSCREEN_START_Getön_K_LET_N_265" 167 "[[254,331,384,384]]" 167 "Getön" "black" "non-degradated" "not underlined" "175" 0
705.221 1.347 1527031 "Exp.Trial" "MASKSCREEN_START_Elite_K_LET_U_290" 168 "[[279,356,384,384]]" 168 "Elite" "black" "non-degradated" "underlined" "233" NA
708.189 1.585 1529999 "Exp.Trial" "MASKSCREEN_START_Viola_K_LET_U_302" 169 "[[291,368,384,384]]" 169 "Viola" "black" "non-degradated" "underlined" "217" 0
718.026 1.13 1539836 "Exp.Trial" "MASKSCREEN_START_Klotz_E_DEG_U_252" 170 "[[241,318,384,384]]" 170 "Klotz" "blue" "degradated" "underlined" "136" NA
720.516 1.906 1542326 "Exp.Trial" "MASKSCREEN_START_Dunst_E_DEG_U_277" 171 "[[266,343,384,384]]" 171 "Dunst" "blue" "degradated" "underlined" "150" NA
723.987 2.1 1545797 "Exp.Trial" "MASKSCREEN_START_Gebet_E_DEG_U_339" 172 "[[328,405,384,384]]" 172 "Gebet" "blue" "degradated" "underlined" "156" NA
727.656 1.813 1549466 "Exp.Trial" "MASKSCREEN_START_Ritze_K_DEG_U_228" 173 "[[217,294,384,384]]" 173 "Ritze" "black" "degradated" "underlined" "318" NA
731.083 1.565 1552893 "Exp.Trial" "MASKSCREEN_START_Aktie_K_DEG_N_265" 174 "[[254,331,384,384]]" 174 "Aktie" "black" "degradated" "not underlined" "248" NA
734.059 1.553 1555869 "Exp.Trial" "MASKSCREEN_START_Seife_E_LET_N_290" 175 "[[279,356,384,384]]" 175 "Seife" "blue" "non-degradated" "not underlined" "6" NA
736.953 1.884 1558763 "Exp.Trial" "MASKSCREEN_START_Blatt_E_DEG_N_228" 176 "[[217,294,384,384]]" 176 "Blatt" "blue" "degradated" "not underlined" "115" 0
744.32 1.605 1566130 "Exp.Trial" "MASKSCREEN_START_Quint_K_DEG_N_513" 177 "[[502,579,384,384]]" 177 "Quint" "black" "degradated" "not underlined" "265" NA
747.482 1.476 1569292 "Exp.Trial" "MASKSCREEN_START_Modul_E_DEG_U_513" 178 "[[502,579,384,384]]" 178 "Modul" "blue" "degradated" "underlined" "127" 0
754.392 1.267 1576202 "Exp.Trial" "MASKSCREEN_START_Knabe_E_LET_N_252" 179 "[[241,318,384,384]]" 179 "Knabe" "blue" "non-degradated" "not underlined" "1" NA
757.105 1.329 1578915 "Exp.Trial" "MASKSCREEN_START_Äther_E_LET_N_451" 180 "[[440,517,384,384]]" 180 "Äther" "blue" "non-degradated" "not underlined" "34" NA
760.033 1.676 1581843 "Exp.Trial" "MASKSCREEN_START_Kerze_K_LET_N_277" 181 "[[266,343,384,384]]" 181 "Kerze" "black" "non-degradated" "not underlined" "165" NA
764.009 2.179 1585819 "Exp.Trial" "MASKSCREEN_START_Axiom_E_LET_N_364" 182 "[[353,430,384,384]]" 182 "Axiom" "blue" "non-degradated" "not underlined" "27" NA
767.707 1.533 1589517 "Exp.Trial" "MASKSCREEN_START_Bombe_E_DEG_U_265" 183 "[[254,331,384,384]]" 183 "Bombe" "blue" "degradated" "underlined" "129" 0
774.816 1.693 1596626 "Exp.Trial" "MASKSCREEN_START_Amsel_E_DEG_U_240" 184 "[[229,306,384,384]]" 184 "Amsel" "blue" "degradated" "underlined" "137" NA
777.883 1.996 1599693 "Exp.Trial" "MASKSCREEN_START_Drill_E_DEG_U_339" 185 "[[328,405,384,384]]" 185 "Drill" "blue" "degradated" "underlined" "128" NA
781.442 1.078 1603252 "Exp.Trial" "MASKSCREEN_START_Fülle_K_DEG_N_290" 186 "[[279,356,384,384]]" 186 "Fülle" "black" "degradated" "not underlined" "271" NA
783.951 1.409 1605761 "Exp.Trial" "MASKSCREEN_START_Kajak_K_LET_N_314" 187 "[[303,380,384,384]]" 187 "Kajak" "black" "non-degradated" "not underlined" "190" NA
786.885 1.667 1608695 "Exp.Trial" "MASKSCREEN_START_Witwe_E_LET_U_352" 188 "[[341,418,384,384]]" 188 "Witwe" "blue" "non-degradated" "underlined" "64" NA
790.45 1.745 1612260 "Exp.Trial" "MASKSCREEN_START_Weihe_K_DEG_N_401" 189 "[[390,467,384,384]]" 189 "Weihe" "black" "degradated" "not underlined" "264" NA
793.617 1.5 1615427 "Exp.Trial" "MASKSCREEN_START_Trott_K_LET_N_339" 190 "[[328,405,384,384]]" 190 "Trott" "black" "non-degradated" "not underlined" "194" NA
796.723 1.791 1618533 "Exp.Trial" "MASKSCREEN_START_Brust_K_DEG_N_314" 191 "[[303,380,384,384]]" 191 "Brust" "black" "degradated" "not underlined" "251" NA
800.686 1.348 1622496 "Exp.Trial" "MASKSCREEN_START_Nonne_K_LET_N_265" 192 "[[254,331,384,384]]" 192 "Nonne" "black" "non-degradated" "not underlined" "198" 0
807.411 1.117 1629221 "Exp.Trial" "MASKSCREEN_START_Sitte_E_DEG_U_290" 193 "[[279,356,384,384]]" 193 "Sitte" "blue" "degradated" "underlined" "151" NA
810.702 1.36 1632512 "Exp.Trial" "MASKSCREEN_START_Porto_E_LET_U_290" 194 "[[279,356,384,384]]" 194 "Porto" "blue" "non-degradated" "underlined" "59" NA
815.609 1.818 1637419 "Exp.Trial" "MASKSCREEN_START_Wanst_K_DEG_U_476" 195 "[[465,542,384,384]]" 195 "Wanst" "black" "degradated" "underlined" "297" NA
820.62 1.57 1642430 "Exp.Trial" "MASKSCREEN_START_Kette_K_LET_N_252" 196 "[[241,318,384,384]]" 196 "Kette" "black" "non-degradated" "not underlined" "199" NA
825.566 1.369 1647376 "Exp.Trial" "MASKSCREEN_START_Nugat_E_LET_U_265" 197 "[[254,331,384,384]]" 197 "Nugat" "blue" "non-degradated" "underlined" "55" NA
829.523 1.783 1651333 "Exp.Trial" "MASKSCREEN_START_Kolik_K_DEG_N_302" 198 "[[291,368,384,384]]" 198 "Kolik" "black" "degradated" "not underlined" "253" NA
833.434 1.837 1655244 "Exp.Trial" "MASKSCREEN_START_Orbit_K_DEG_U_228" 199 "[[217,294,384,384]]" 199 "Orbit" "black" "degradated" "underlined" "287" NA
836.638 1.636 1658448 "Exp.Trial" "MASKSCREEN_START_Kater_K_DEG_N_277" 200 "[[266,343,384,384]]" 200 "Kater" "black" "degradated" "not underlined" "252" 0
844.112 1.263 1665922 "Exp.Trial" "MASKSCREEN_START_Musik_K_LET_N_438" 201 "[[427,504,384,384]]" 201 "Musik" "black" "non-degradated" "not underlined" "200" NA
846.961 1.503 1668771 "Exp.Trial" "MASKSCREEN_START_Reibe_K_DEG_U_476" 202 "[[465,542,384,384]]" 202 "Reibe" "black" "degradated" "underlined" "295" NA
850.148 2.106 1671958 "Exp.Trial" "MASKSCREEN_START_Buche_E_DEG_U_339" 203 "[[328,405,384,384]]" 203 "Buche" "blue" "degradated" "underlined" "122" NA
853.924 1.154 1675734 "Exp.Trial" "MASKSCREEN_START_Anker_E_LET_N_290" 204 "[[279,356,384,384]]" 204 "Anker" "blue" "non-degradated" "not underlined" "22" NA
857.063 1.952 1678873 "Exp.Trial" "MASKSCREEN_START_Lauge_K_LET_U_240" 205 "[[229,306,384,384]]" 205 "Lauge" "black" "non-degradated" "underlined" "236" 0
866.305 1.429 1688115 "Exp.Trial" "MASKSCREEN_START_Rispe_K_DEG_N_376" 206 "[[365,442,384,384]]" 206 "Rispe" "black" "degradated" "not underlined" "275" NA
872.405 1.338 1694215 "Exp.Trial" "MASKSCREEN_START_Kleid_K_DEG_U_228" 207 "[[217,294,384,384]]" 207 "Kleid" "black" "degradated" "underlined" "281" NA
875.107 1.615 1696917 "Exp.Trial" "MASKSCREEN_START_Lunge_E_DEG_N_476" 208 "[[465,542,384,384]]" 208 "Lunge" "blue" "degradated" "not underlined" "81" 0
884.593 1.703 1706403 "Exp.Trial" "MASKSCREEN_START_Heber_K_DEG_U_525" 209 "[[514,591,384,384]]" 209 "Heber" "black" "degradated" "underlined" "292" NA
887.673 1.98 1709483 "Exp.Trial" "MASKSCREEN_START_Zucht_E_DEG_N_314" 210 "[[303,380,384,384]]" 210 "Zucht" "blue" "degradated" "not underlined" "111" NA
891.875 1.985 1713685 "Exp.Trial" "MASKSCREEN_START_Markt_E_LET_U_302" 211 "[[291,368,384,384]]" 211 "Markt" "blue" "non-degradated" "underlined" "74" NA
895.957 1.349 1717767 "Exp.Trial" "MASKSCREEN_START_Beruf_E_LET_N_314" 212 "[[303,380,384,384]]" 212 "Beruf" "blue" "non-degradated" "not underlined" "17" NA
903.068 1.415 1724878 "Exp.Trial" "MASKSCREEN_START_Gecko_K_DEG_N_314" 213 "[[303,380,384,384]]" 213 "Gecko" "black" "degradated" "not underlined" "268" NA
906.619 1.96 1728429 "Exp.Trial" "MASKSCREEN_START_Mensa_E_DEG_N_277" 214 "[[266,343,384,384]]" 214 "Mensa" "blue" "degradated" "not underlined" "83" 0
914.326 2.029 1736136 "Exp.Trial" "MASKSCREEN_START_Fehde_K_LET_N_252" 215 "[[241,318,384,384]]" 215 "Fehde" "black" "non-degradated" "not underlined" "176" NA
917.725 2.073 1739535 "Exp.Trial" "MASKSCREEN_START_Logik_E_DEG_U_389" 216 "[[378,455,384,384]]" 216 "Logik" "blue" "degradated" "underlined" "144" 0
925.876 1.301 1747686 "Exp.Trial" "MASKSCREEN_START_Bauer_K_LET_N_389" 217 "[[378,455,384,384]]" 217 "Bauer" "black" "non-degradated" "not underlined" "196" NA
928.553 1.45 1750363 "Exp.Trial" "MASKSCREEN_START_Plane_K_DEG_N_414" 218 "[[403,480,384,384]]" 218 "Plane" "black" "degradated" "not underlined" "277" NA
932.063 1.532 1753873 "Exp.Trial" "MASKSCREEN_START_Krebs_E_LET_N_228" 219 "[[217,294,384,384]]" 219 "Krebs" "blue" "non-degradated" "not underlined" "29" NA
935.642 1.928 1757452 "Exp.Trial" "MASKSCREEN_START_Sorte_K_DEG_U_327" 220 "[[316,393,384,384]]" 220 "Sorte" "black" "degradated" "underlined" "299" NA
939.385 1.238 1761195 "Exp.Trial" "MASKSCREEN_START_Liege_K_DEG_N_215" 221 "[[204,281,384,384]]" 221 "Liege" "black" "degradated" "not underlined" "280" NA
941.989 1.884 1763799 "Exp.Trial" "MASKSCREEN_START_Säule_E_DEG_U_302" 222 "[[291,368,384,384]]" 222 "Säule" "blue" "degradated" "underlined" "126" NA
945.432 1.682 1767242 "Exp.Trial" "MASKSCREEN_START_Ziege_E_LET_U_451" 223 "[[440,517,384,384]]" 223 "Ziege" "blue" "non-degradated" "underlined" "51" NA
948.746 1.44 1770556 "Exp.Trial" "MASKSCREEN_START_Dogma_E_LET_U_352" 224 "[[341,418,384,384]]" 224 "Dogma" "blue" "non-degradated" "underlined" "67" 0
956.937 1.217 1778747 "Exp.Trial" "MASKSCREEN_START_Radio_E_DEG_N_352" 225 "[[341,418,384,384]]" 225 "Radio" "blue" "degradated" "not underlined" "109" NA
959.659 1.445 1781469 "Exp.Trial" "MASKSCREEN_START_Waage_K_DEG_N_302" 226 "[[291,368,384,384]]" 226 "Waage" "black" "degradated" "not underlined" "255" NA
962.566 1.515 1784376 "Exp.Trial" "MASKSCREEN_START_Onkel_E_LET_N_228" 227 "[[217,294,384,384]]" 227 "Onkel" "blue" "non-degradated" "not underlined" "35" NA
965.445 1.447 1787255 "Exp.Trial" "MASKSCREEN_START_Salbe_K_DEG_N_277" 228 "[[266,343,384,384]]" 228 "Salbe" "black" "degradated" "not underlined" "247" NA
968.56 2.012 1790370 "Exp.Trial" "MASKSCREEN_START_Moder_E_DEG_N_265" 229 "[[254,331,384,384]]" 229 "Moder" "blue" "degradated" "not underlined" "97" NA
971.913 1.846 1793723 "Exp.Trial" "MASKSCREEN_START_Panne_K_DEG_N_252" 230 "[[241,318,384,384]]" 230 "Panne" "black" "degradated" "not underlined" "276" NA
975.425 1.743 1797235 "Exp.Trial" "MASKSCREEN_START_Tulpe_K_DEG_N_500" 231 "[[489,566,384,384]]" 231 "Tulpe" "black" "degradated" "not underlined" "245" 0
982.852 1.143 1804662 "Exp.Trial" "MASKSCREEN_START_Hecke_K_LET_U_228" 232 "[[217,294,384,384]]" 232 "Hecke" "black" "non-degradated" "underlined" "230" NA
985.397 1.37 1807207 "Exp.Trial" "MASKSCREEN_START_Zeder_K_DEG_U_265" 233 "[[254,331,384,384]]" 233 "Zeder" "black" "degradated" "underlined" "304" NA
988.156 1.483 1809966 "Exp.Trial" "MASKSCREEN_START_Pirat_E_DEG_U_215" 234 "[[204,281,384,384]]" 234 "Pirat" "blue" "degradated" "underlined" "133" NA
991.024 1.795 1812834 "Exp.Trial" "MASKSCREEN_START_Genre_K_DEG_N_228" 235 "[[217,294,384,384]]" 235 "Genre" "black" "degradated" "not underlined" "249" NA
994.218 1.532 1816028 "Exp.Trial" "MASKSCREEN_START_Optik_K_DEG_U_352" 236 "[[341,418,384,384]]" 236 "Optik" "black" "degradated" "underlined" "301" 0
1005.834 1.295 1827644 "Exp.Trial" "MASKSCREEN_START_Feile_K_LET_N_302" 237 "[[291,368,384,384]]" 237 "Feile" "black" "non-degradated" "not underlined" "185" NA
1008.754 1.49 1830564 "Exp.Trial" "MASKSCREEN_START_Ölung_E_LET_N_228" 238 "[[217,294,384,384]]" 238 "Ölung" "blue" "non-degradated" "not underlined" "14" NA
1011.762 1.897 1833572 "Exp.Trial" "MASKSCREEN_START_Prinz_K_LET_N_265" 239 "[[254,331,384,384]]" 239 "Prinz" "black" "non-degradated" "not underlined" "166" NA
1015.221 1.639 1837031 "Exp.Trial" "MASKSCREEN_START_Zicke_K_LET_N_252" 240 "[[241,318,384,384]]" 240 "Zicke" "black" "non-degradated" "not underlined" "183" NA
1018.259 1.848 1840069 "Exp.Trial" "MASKSCREEN_START_Fjord_K_DEG_U_414" 241 "[[403,480,384,384]]" 241 "Fjord" "black" "degradated" "underlined" "283" NA
1021.6 1.375 1843410 "Exp.Trial" "MASKSCREEN_START_Tante_K_LET_U_265" 242 "[[254,331,384,384]]" 242 "Tante" "black" "non-degradated" "underlined" "215" NA
1024.6 1.261 1846410 "Exp.Trial" "MASKSCREEN_START_Linse_K_LET_N_215" 243 "[[204,281,384,384]]" 243 "Linse" "black" "non-degradated" "not underlined" "162" NA
1027.235 1.255 1849045 "Exp.Trial" "MASKSCREEN_START_Malve_K_DEG_N_339" 244 "[[328,405,384,384]]" 244 "Malve" "black" "degradated" "not underlined" "241" 0
1034.232 1.267 1856042 "Exp.Trial" "MASKSCREEN_START_Luder_K_DEG_N_314" 245 "[[303,380,384,384]]" 245 "Luder" "black" "degradated" "not underlined" "259" NA
1037.066 1.314 1858876 "Exp.Trial" "MASKSCREEN_START_These_E_LET_U_376" 246 "[[365,442,384,384]]" 246 "These" "blue" "non-degradated" "underlined" "53" NA
1039.742 1.704 1861552 "Exp.Trial" "MASKSCREEN_START_China_K_DEG_N_302" 247 "[[291,368,384,384]]" 247 "China" "black" "degradated" "not underlined" "257" NA
1042.995 1.325 1864805 "Exp.Trial" "MASKSCREEN_START_Trupp_K_DEG_N_240" 248 "[[229,306,384,384]]" 248 "Trupp" "black" "degradated" "not underlined" "262" NA
1045.929 1.811 1867739 "Exp.Trial" "MASKSCREEN_START_Buchs_E_LET_N_426" 249 "[[415,492,384,384]]" 249 "Buchs" "blue" "non-degradated" "not underlined" "5" NA
1049.177 1.701 1870987 "Exp.Trial" "MASKSCREEN_START_Basar_K_LET_U_228" 250 "[[217,294,384,384]]" 250 "Basar" "black" "non-degradated" "underlined" "203" 0
1056.955 1.701 1878765 "Exp.Trial" "MASKSCREEN_START_Kongo_E_LET_N_228" 251 "[[217,294,384,384]]" 251 "Kongo" "blue" "non-degradated" "not underlined" "15" NA
1060.328 1.145 1882138 "Exp.Trial" "MASKSCREEN_START_Raupe_E_DEG_U_339" 252 "[[328,405,384,384]]" 252 "Raupe" "blue" "degradated" "underlined" "153" NA
1063.016 1.517 1884826 "Exp.Trial" "MASKSCREEN_START_Laken_K_DEG_U_228" 253 "[[217,294,384,384]]" 253 "Laken" "black" "degradated" "underlined" "298" 0
1070.437 1.056 1892247 "Exp.Trial" "MASKSCREEN_START_Polio_E_DEG_N_364" 254 "[[353,430,384,384]]" 254 "Polio" "blue" "degradated" "not underlined" "103" NA
1072.894 1.285 1894704 "Exp.Trial" "MASKSCREEN_START_Werft_E_DEG_N_376" 255 "[[365,442,384,384]]" 255 "Werft" "blue" "degradated" "not underlined" "87" NA
1075.947 1.299 1897757 "Exp.Trial" "MASKSCREEN_START_Major_K_LET_N_252" 256 "[[241,318,384,384]]" 256 "Major" "black" "non-degradated" "not underlined" "195" NA
1078.85 1.276 1900660 "Exp.Trial" "MASKSCREEN_START_Fötus_K_DEG_U_352" 257 "[[341,418,384,384]]" 257 "Fötus" "black" "degradated" "underlined" "289" 0
1085.918 1.169 1907728 "Exp.Trial" "MASKSCREEN_START_Rinde_E_DEG_U_314" 258 "[[303,380,384,384]]" 258 "Rinde" "blue" "degradated" "underlined" "148" NA
1088.46 1.217 1910270 "Exp.Trial" "MASKSCREEN_START_Runde_E_DEG_N_228" 259 "[[217,294,384,384]]" 259 "Runde" "blue" "degradated" "not underlined" "108" NA
1091.035 1.918 1912845 "Exp.Trial" "MASKSCREEN_START_Lager_E_DEG_U_228" 260 "[[217,294,384,384]]" 260 "Lager" "blue" "degradated" "underlined" "145" NA
1094.35 1.314 1916160 "Exp.Trial" "MASKSCREEN_START_Otter_E_DEG_N_290" 261 "[[279,356,384,384]]" 261 "Otter" "blue" "degradated" "not underlined" "112" NA
1097.316 1.633 1919126 "Exp.Trial" "MASKSCREEN_START_Abgas_E_DEG_U_252" 262 "[[241,318,384,384]]" 262 "Abgas" "blue" "degradated" "underlined" "138" NA
1100.522 1.715 1922332 "Exp.Trial" "MASKSCREEN_START_Tisch_E_LET_U_488" 263 "[[477,554,384,384]]" 263 "Tisch" "blue" "non-degradated" "underlined" "62" NA
1103.702 1.709 1925512 "Exp.Trial" "MASKSCREEN_START_Regie_E_DEG_N_327" 264 "[[316,393,384,384]]" 264 "Regie" "blue" "degradated" "not underlined" "116" NA
1106.808 1.817 1928618 "Exp.Trial" "MASKSCREEN_START_Kluft_K_DEG_N_277" 265 "[[266,343,384,384]]" 265 "Kluft" "black" "degradated" "not underlined" "258" 0
1115.299 1.12 1937109 "Exp.Trial" "MASKSCREEN_START_Depot_E_DEG_U_252" 266 "[[241,318,384,384]]" 266 "Depot" "blue" "degradated" "underlined" "135" NA
1117.962 1.439 1939772 "Exp.Trial" "MASKSCREEN_START_Troll_E_LET_U_426" 267 "[[415,492,384,384]]" 267 "Troll" "blue" "non-degradated" "underlined" "57" NA
1120.882 2.161 1942692 "Exp.Trial" "MASKSCREEN_START_Chrom_K_LET_U_277" 268 "[[266,343,384,384]]" 268 "Chrom" "black" "non-degradated" "underlined" "213" NA
1124.473 1.953 1946283 "Exp.Trial" "MASKSCREEN_START_Villa_K_LET_U_314" 269 "[[303,380,384,384]]" 269 "Villa" "black" "non-degradated" "underlined" "240" 0
1131.635 1.437 1953445 "Exp.Trial" "MASKSCREEN_START_Knast_K_DEG_N_327" 270 "[[316,393,384,384]]" 270 "Knast" "black" "degradated" "not underlined" "278" NA
1134.696 2.217 1956506 "Exp.Trial" "MASKSCREEN_START_Hüter_E_LET_U_215" 271 "[[204,281,384,384]]" 271 "Hüter" "blue" "non-degradated" "underlined" "66" NA
1138.313 1.73 1960123 "Exp.Trial" "MASKSCREEN_START_Phase_E_LET_U_228" 272 "[[217,294,384,384]]" 272 "Phase" "blue" "non-degradated" "underlined" "69" NA
1141.46 1.566 1963270 "Exp.Trial" "MASKSCREEN_START_Weber_E_LET_N_339" 273 "[[328,405,384,384]]" 273 "Weber" "blue" "non-degradated" "not underlined" "38" NA
1144.633 1.245 1966443 "Exp.Trial" "MASKSCREEN_START_Treff_K_DEG_N_302" 274 "[[291,368,384,384]]" 274 "Treff" "black" "degradated" "not underlined" "270" NA
1147.288 1.643 1969098 "Exp.Trial" "MASKSCREEN_START_Opfer_E_DEG_U_339" 275 "[[328,405,384,384]]" 275 "Opfer" "blue" "degradated" "underlined" "157" NA
1150.322 1.195 1972132 "Exp.Trial" "MASKSCREEN_START_Wüste_K_DEG_N_277" 276 "[[266,343,384,384]]" 276 "Wüste" "black" "degradated" "not underlined" "261" NA
1154.106 1.813 1975916 "Exp.Trial" "MASKSCREEN_START_Strom_K_LET_N_240" 277 "[[229,306,384,384]]" 277 "Strom" "black" "non-degradated" "not underlined" "163" NA
1158.574 1.511 1980384 "Exp.Trial" "MASKSCREEN_START_Plage_E_LET_U_240" 278 "[[229,306,384,384]]" 278 "Plage" "blue" "non-degradated" "underlined" "54" NA
1161.733 1.404 1983543 "Exp.Trial" "MASKSCREEN_START_Stola_E_DEG_U_352" 279 "[[341,418,384,384]]" 279 "Stola" "blue" "degradated" "underlined" "124" NA
1164.947 1.401 1986757 "Exp.Trial" "MASKSCREEN_START_Bürde_K_LET_U_290" 280 "[[279,356,384,384]]" 280 "Bürde" "black" "non-degradated" "underlined" "238" NA
1167.933 1.477 1989743 "Exp.Trial" "MASKSCREEN_START_Geist_E_DEG_U_277" 281 "[[266,343,384,384]]" 281 "Geist" "blue" "degradated" "underlined" "134" NA
1171.751 1.621 1993561 "Exp.Trial" "MASKSCREEN_START_Kiste_K_LET_N_401" 282 "[[390,467,384,384]]" 282 "Kiste" "black" "non-degradated" "not underlined" "187" NA
1175.68 1.609 1997490 "Exp.Trial" "MASKSCREEN_START_Teint_K_LET_U_302" 283 "[[291,368,384,384]]" 283 "Teint" "black" "non-degradated" "underlined" "229" 0
1183.854 1.083 2005664 "Exp.Trial" "MASKSCREEN_START_Etage_K_DEG_N_228" 284 "[[217,294,384,384]]" 284 "Etage" "black" "degradated" "not underlined" "260" NA
1186.474 1.337 2008284 "Exp.Trial" "MASKSCREEN_START_Sehne_E_LET_N_376" 285 "[[365,442,384,384]]" 285 "Sehne" "blue" "non-degradated" "not underlined" "26" NA
1189.229 1.028 2011039 "Exp.Trial" "MASKSCREEN_START_Mafia_E_LET_N_314" 286 "[[303,380,384,384]]" 286 "Mafia" "blue" "non-degradated" "not underlined" "16" NA
1192.011 1.273 2013821 "Exp.Trial" "MASKSCREEN_START_Masse_E_LET_U_228" 287 "[[217,294,384,384]]" 287 "Masse" "blue" "non-degradated" "underlined" "50" NA
1195.456 0.958 2017266 "Exp.Trial" "MASKSCREEN_START_Regal_E_LET_N_228" 288 "[[217,294,384,384]]" 288 "Regal" "blue" "non-degradated" "not underlined" "10" NA
1197.845 1.518 2019655 "Exp.Trial" "MASKSCREEN_START_Erlös_E_LET_U_476" 289 "[[465,542,384,384]]" 289 "Erlös" "blue" "non-degradated" "underlined" "47" NA
1200.96 1.747 2022770 "Exp.Trial" "MASKSCREEN_START_Bühne_E_DEG_N_488" 290 "[[477,554,384,384]]" 290 "Bühne" "blue" "degradated" "not underlined" "101" 0
1215.709 1.373 2037519 "Exp.Trial" "MASKSCREEN_START_Echse_K_DEG_U_228" 291 "[[217,294,384,384]]" 291 "Echse" "black" "degradated" "underlined" "288" NA
1218.517 1.128 2040327 "Exp.Trial" "MASKSCREEN_START_Spore_E_LET_U_339" 292 "[[328,405,384,384]]" 292 "Spore" "blue" "non-degradated" "underlined" "42" NA
1221.285 1.259 2043095 "Exp.Trial" "MASKSCREEN_START_Klima_E_DEG_U_252" 293 "[[241,318,384,384]]" 293 "Klima" "blue" "degradated" "underlined" "141" NA
1224.478 1.31 2046288 "Exp.Trial" "MASKSCREEN_START_Pfand_K_LET_U_414" 294 "[[403,480,384,384]]" 294 "Pfand" "black" "non-degradated" "underlined" "201" NA
1227.439 1.391 2049249 "Exp.Trial" "MASKSCREEN_START_Flair_E_DEG_U_240" 295 "[[229,306,384,384]]" 295 "Flair" "blue" "degradated" "underlined" "147" NA
1230.479 0.963 2052289 "Exp.Trial" "MASKSCREEN_START_Block_E_LET_U_414" 296 "[[403,480,384,384]]" 296 "Block" "blue" "non-degradated" "underlined" "60" NA
1232.982 1.114 2054792 "Exp.Trial" "MASKSCREEN_START_Nylon_E_DEG_U_228" 297 "[[217,294,384,384]]" 297 "Nylon" "blue" "degradated" "underlined" "139" 0
1239.62 1.238 2061430 "Exp.Trial" "MASKSCREEN_START_Tunke_E_LET_N_252" 298 "[[241,318,384,384]]" 298 "Tunke" "blue" "non-degradated" "not underlined" "30" 0
1247.978 1.154 2069788 "Exp.Trial" "MASKSCREEN_START_Mango_K_DEG_U_228" 299 "[[217,294,384,384]]" 299 "Mango" "black" "degradated" "underlined" "286" NA
1250.599 1.312 2072409 "Exp.Trial" "MASKSCREEN_START_Beute_K_LET_N_389" 300 "[[378,455,384,384]]" 300 "Beute" "black" "non-degradated" "not underlined" "169" NA
1253.521 1.301 2075331 "Exp.Trial" "MASKSCREEN_START_Wolle_E_DEG_U_376" 301 "[[365,442,384,384]]" 301 "Wolle" "blue" "degradated" "underlined" "159" NA
1256.646 1.626 2078456 "Exp.Trial" "MASKSCREEN_START_Belag_K_LET_U_252" 302 "[[241,318,384,384]]" 302 "Belag" "black" "non-degradated" "underlined" "218" NA
1259.714 1.743 2081524 "Exp.Trial" "MASKSCREEN_START_Härte_E_LET_U_314" 303 "[[303,380,384,384]]" 303 "Härte" "blue" "non-degradated" "underlined" "72" NA
1262.839 1.792 2084649 "Exp.Trial" "MASKSCREEN_START_Datei_E_DEG_U_277" 304 "[[266,343,384,384]]" 304 "Datei" "blue" "degradated" "underlined" "140" NA
1266.199 1.427 2088009 "Exp.Trial" "MASKSCREEN_START_Paket_E_LET_U_352" 305 "[[341,418,384,384]]" 305 "Paket" "blue" "non-degradated" "underlined" "77" NA
1269.839 1.513 2091649 "Exp.Trial" "MASKSCREEN_START_Lachs_E_LET_N_352" 306 "[[341,418,384,384]]" 306 "Lachs" "blue" "non-degradated" "not underlined" "24" NA
1272.811 1.26 2094621 "Exp.Trial" "MASKSCREEN_START_Enkel_K_LET_U_277" 307 "[[266,343,384,384]]" 307 "Enkel" "black" "non-degradated" "underlined" "205" NA
1275.532 1.369 2097342 "Exp.Trial" "MASKSCREEN_START_Ikone_K_DEG_N_314" 308 "[[303,380,384,384]]" 308 "Ikone" "black" "degradated" "not underlined" "267" 0
1281.932 1.066 2103742 "Exp.Trial" "MASKSCREEN_START_Pfahl_K_LET_N_240" 309 "[[229,306,384,384]]" 309 "Pfahl" "black" "non-degradated" "not underlined" "189" NA
1284.608 1.123 2106418 "Exp.Trial" "MASKSCREEN_START_Pedal_K_LET_U_314" 310 "[[303,380,384,384]]" 310 "Pedal" "black" "non-degradated" "underlined" "214" NA
1287.555 2.09 2109365 "Exp.Trial" "MASKSCREEN_START_Fauna_E_LET_U_339" 311 "[[328,405,384,384]]" 311 "Fauna" "blue" "non-degradated" "underlined" "68" NA
1291.094 1.407 2112904 "Exp.Trial" "MASKSCREEN_START_Ruder_K_LET_U_252" 312 "[[241,318,384,384]]" 312 "Ruder" "black" "non-degradated" "underlined" "228" NA
1293.876 1.35 2115686 "Exp.Trial" "MASKSCREEN_START_Ungar_E_DEG_N_327" 313 "[[316,393,384,384]]" 313 "Ungar" "blue" "degradated" "not underlined" "95" NA
1296.829 1.485 2118639 "Exp.Trial" "MASKSCREEN_START_Szene_E_LET_N_240" 314 "[[229,306,384,384]]" 314 "Szene" "blue" "non-degradated" "not underlined" "23" NA
1299.962 1.968 2121772 "Exp.Trial" "MASKSCREEN_START_Karte_K_DEG_N_327" 315 "[[316,393,384,384]]" 315 "Karte" "black" "degradated" "not underlined" "254" NA
1303.621 1.745 2125431 "Exp.Trial" "MASKSCREEN_START_Laich_E_DEG_N_327" 316 "[[316,393,384,384]]" 316 "Laich" "blue" "degradated" "not underlined" "113" NA
1306.752 1.771 2128562 "Exp.Trial" "MASKSCREEN_START_Bowle_K_DEG_N_215" 317 "[[204,281,384,384]]" 317 "Bowle" "black" "degradated" "not underlined" "269" NA
1310.158 2.023 2131968 "Exp.Trial" "MASKSCREEN_START_Madam_E_LET_N_252" 318 "[[241,318,384,384]]" 318 "Madam" "blue" "non-degradated" "not underlined" "4" NA
1313.623 1.575 2135433 "Exp.Trial" "MASKSCREEN_START_Zwang_K_DEG_N_352" 319 "[[341,418,384,384]]" 319 "Zwang" "black" "degradated" "not underlined" "272" NA
1316.77 1.369 2138580 "Exp.Trial" "MASKSCREEN_START_Anbau_K_DEG_N_302" 320 "[[291,368,384,384]]" 320 "Anbau" "black" "degradated" "not underlined" "250" 0
