"onset" "duration" "sample" "trial_type" "event_nr" "aoi" "trial" "target_word" "color" "mask" "underlining" "sentenceNr" "response"
0 1.21 821810 "Exp.Trial" 1 "[[240,295,\"NA\",\"NA\"]]" 1 "Jubel" "blue" "non-degradated" "not underlined" "12" NA
2.947 1.636 824757 "Exp.Trial" 2 "[[389,444,\"NA\",\"NA\"]]" 2 "Obhut" "blue" "non-degradated" "not underlined" "40" NA
6.354 1.505 828164 "Exp.Trial" 3 "[[265,320,\"NA\",\"NA\"]]" 3 "Dämon" "black" "non-degradated" "not underlined" "192" NA
9.459 1.948 831269 "Exp.Trial" 4 "[[426,481,\"NA\",\"NA\"]]" 4 "Liste" "blue" "degradated" "not underlined" "99" NA
12.99 1.363 834800 "Exp.Trial" 5 "[[339,394,\"NA\",\"NA\"]]" 5 "Karat" "blue" "non-degradated" "not underlined" "37" NA
15.977 1.485 837787 "Exp.Trial" 6 "[[302,357,\"NA\",\"NA\"]]" 6 "Büste" "blue" "non-degradated" "not underlined" "25" NA
19.032 1.282 840842 "Exp.Trial" 7 "[[327,382,\"NA\",\"NA\"]]" 7 "Rippe" "blue" "non-degradated" "underlined" "56" NA
22.059 1.397 843869 "Exp.Trial" 8 "[[401,456,\"NA\",\"NA\"]]" 8 "Gicht" "blue" "non-degradated" "not underlined" "33" NA
25.17 1.244 846980 "Exp.Trial" 9 "[[376,431,\"NA\",\"NA\"]]" 9 "Nagel" "blue" "non-degradated" "underlined" "65" NA
28.154 1.806 849964 "Exp.Trial" 10 "[[376,431,\"NA\",\"NA\"]]" 10 "Abbau" "black" "degradated" "underlined" "302" NA
31.465 1.5 853275 "Exp.Trial" 11 "[[426,481,\"NA\",\"NA\"]]" 11 "Nudel" "blue" "degradated" "underlined" "154" NA
34.545 2.893 856355 "Exp.Trial" 12 "[[550,605,\"NA\",\"NA\"]]" 12 "Quast" "blue" "non-degradated" "underlined" "61" NA
39.106 1.603 860916 "Exp.Trial" 13 "[[500,555,\"NA\",\"NA\"]]" 13 "Lauch" "black" "non-degradated" "not underlined" "197" NA
42.245 1.589 864055 "Exp.Trial" 14 "[[265,320,\"NA\",\"NA\"]]" 14 "Miene" "blue" "degradated" "underlined" "155" 0
51.273 1.132 873083 "Exp.Trial" 15 "[[228,283,\"NA\",\"NA\"]]" 15 "Wuchs" "blue" "degradated" "not underlined" "85" 0
62.479 1.27 884289 "Exp.Trial" 16 "[[252,307,\"NA\",\"NA\"]]" 16 "Sumpf" "black" "non-degradated" "not underlined" "182" NA
65.42 1.068 887230 "Exp.Trial" 17 "[[290,345,\"NA\",\"NA\"]]" 17 "Raser" "blue" "non-degradated" "not underlined" "3" NA
68.155 2.017 889965 "Exp.Trial" 18 "[[277,332,\"NA\",\"NA\"]]" 18 "Würze" "black" "degradated" "not underlined" "263" NA
71.746 2.331 893556 "Exp.Trial" 19 "[[426,481,\"NA\",\"NA\"]]" 19 "Juwel" "blue" "degradated" "underlined" "142" NA
75.596 1.958 897406 "Exp.Trial" 20 "[[401,456,\"NA\",\"NA\"]]" 20 "Felge" "blue" "degradated" "underlined" "160" NA
79.154 1.422 900964 "Exp.Trial" 21 "[[265,320,\"NA\",\"NA\"]]" 21 "Manko" "black" "non-degradated" "not underlined" "173" 0
86.757 1.258 908567 "Exp.Trial" 22 "[[265,320,\"NA\",\"NA\"]]" 22 "Spott" "black" "non-degradated" "not underlined" "180" 0
94.733 1.69 916543 "Exp.Trial" 23 "[[265,320,\"NA\",\"NA\"]]" 23 "Beize" "blue" "non-degradated" "underlined" "58" NA
98.014 1.373 919824 "Exp.Trial" 24 "[[228,283,\"NA\",\"NA\"]]" 24 "Henne" "black" "degradated" "underlined" "320" 0
106.025 1.645 927835 "Exp.Trial" 25 "[[228,283,\"NA\",\"NA\"]]" 25 "Lette" "blue" "degradated" "not underlined" "96" 0
114.251 1.701 936061 "Exp.Trial" 26 "[[228,283,\"NA\",\"NA\"]]" 26 "Ahorn" "black" "non-degradated" "not underlined" "193" NA
117.384 2.187 939194 "Exp.Trial" 27 "[[277,332,\"NA\",\"NA\"]]" 27 "Kuhle" "blue" "non-degradated" "underlined" "45" NA
121.473 1.927 943283 "Exp.Trial" 28 "[[327,382,\"NA\",\"NA\"]]" 28 "Beleg" "black" "non-degradated" "underlined" "212" NA
124.959 1.852 946769 "Exp.Trial" 29 "[[228,283,\"NA\",\"NA\"]]" 29 "Radar" "black" "degradated" "underlined" "306" NA
128.185 1.959 949995 "Exp.Trial" 30 "[[290,345,\"NA\",\"NA\"]]" 30 "Miliz" "blue" "degradated" "not underlined" "120" NA
131.696 1.967 953506 "Exp.Trial" 31 "[[277,332,\"NA\",\"NA\"]]" 31 "Zeile" "blue" "degradated" "not underlined" "88" NA
135.202 1.308 957012 "Exp.Trial" 32 "[[265,320,\"NA\",\"NA\"]]" 32 "Sünde" "black" "non-degradated" "underlined" "207" 0
142.762 1.555 964572 "Exp.Trial" 33 "[[513,568,\"NA\",\"NA\"]]" 33 "Tolle" "black" "degradated" "underlined" "300" 0
151.047 1.138 972857 "Exp.Trial" 34 "[[228,283,\"NA\",\"NA\"]]" 34 "Übung" "blue" "degradated" "not underlined" "100" NA
153.776 1.707 975586 "Exp.Trial" 35 "[[538,593,\"NA\",\"NA\"]]" 35 "Gramm" "black" "degradated" "not underlined" "279" NA
156.927 2.019 978737 "Exp.Trial" 36 "[[513,568,\"NA\",\"NA\"]]" 36 "Atoll" "blue" "degradated" "not underlined" "98" NA
160.48 1.143 982290 "Exp.Trial" 37 "[[364,419,\"NA\",\"NA\"]]" 37 "Figur" "black" "non-degradated" "underlined" "232" NA
163.294 1.174 985104 "Exp.Trial" 38 "[[401,456,\"NA\",\"NA\"]]" 38 "Mähre" "black" "non-degradated" "not underlined" "167" NA
166.075 1.525 987885 "Exp.Trial" 39 "[[228,283,\"NA\",\"NA\"]]" 39 "Pferd" "black" "degradated" "underlined" "282" NA
169.102 1.65 990912 "Exp.Trial" 40 "[[339,394,\"NA\",\"NA\"]]" 40 "Pulle" "blue" "non-degradated" "underlined" "48" NA
172.229 1.425 994039 "Exp.Trial" 41 "[[215,270,\"NA\",\"NA\"]]" 41 "Yacht" "blue" "non-degradated" "not underlined" "28" NA
175.151 1.481 996961 "Exp.Trial" 42 "[[203,258,\"NA\",\"NA\"]]" 42 "Hafer" "black" "non-degradated" "not underlined" "177" NA
178.097 1.556 999907 "Exp.Trial" 43 "[[339,394,\"NA\",\"NA\"]]" 43 "Organ" "black" "degradated" "underlined" "305" NA
181.271 1.614 1003081 "Exp.Trial" 44 "[[389,444,\"NA\",\"NA\"]]" 44 "Puder" "black" "non-degradated" "not underlined" "181" NA
184.297 1.819 1006107 "Exp.Trial" 45 "[[265,320,\"NA\",\"NA\"]]" 45 "Dekan" "blue" "non-degradated" "not underlined" "11" 0
192.642 0.974 1014452 "Exp.Trial" 46 "[[265,320,\"NA\",\"NA\"]]" 46 "Summe" "blue" "degradated" "underlined" "123" NA
195.106 1.382 1016916 "Exp.Trial" 47 "[[290,345,\"NA\",\"NA\"]]" 47 "Drama" "black" "degradated" "underlined" "314" NA
198.031 1.395 1019841 "Exp.Trial" 48 "[[240,295,\"NA\",\"NA\"]]" 48 "Probe" "blue" "degradated" "not underlined" "117" NA
200.893 1.163 1022703 "Exp.Trial" 49 "[[277,332,\"NA\",\"NA\"]]" 49 "Herde" "black" "non-degradated" "underlined" "204" NA
203.775 2.056 1025585 "Exp.Trial" 50 "[[240,295,\"NA\",\"NA\"]]" 50 "Torte" "blue" "degradated" "underlined" "149" 0
212.357 1.731 1034167 "Exp.Trial" 51 "[[550,605,\"NA\",\"NA\"]]" 51 "König" "black" "non-degradated" "not underlined" "178" NA
215.65 1.807 1037460 "Exp.Trial" 52 "[[290,345,\"NA\",\"NA\"]]" 52 "Taube" "blue" "non-degradated" "underlined" "41" NA
219.082 1.927 1040892 "Exp.Trial" 53 "[[401,456,\"NA\",\"NA\"]]" 53 "Wange" "black" "degradated" "not underlined" "256" NA
222.434 2.167 1044244 "Exp.Trial" 54 "[[575,630,\"NA\",\"NA\"]]" 54 "Blitz" "blue" "degradated" "underlined" "121" NA
226.16 1.62 1047970 "Exp.Trial" 55 "[[302,357,\"NA\",\"NA\"]]" 55 "Delta" "blue" "degradated" "underlined" "131" NA
229.186 2.346 1050996 "Exp.Trial" 56 "[[364,419,\"NA\",\"NA\"]]" 56 "Garde" "blue" "non-degradated" "not underlined" "39" NA
233.206 1.715 1055016 "Exp.Trial" 57 "[[538,593,\"NA\",\"NA\"]]" 57 "Eimer" "black" "non-degradated" "underlined" "216" NA
236.64 1.524 1058450 "Exp.Trial" 58 "[[228,283,\"NA\",\"NA\"]]" 58 "Baske" "blue" "non-degradated" "underlined" "78" 0
243.615 1.398 1065425 "Exp.Trial" 59 "[[314,369,\"NA\",\"NA\"]]" 59 "Biest" "blue" "degradated" "not underlined" "114" NA
246.537 1.849 1068347 "Exp.Trial" 60 "[[401,456,\"NA\",\"NA\"]]" 60 "Klaps" "blue" "non-degradated" "underlined" "70" NA
250.036 1.651 1071846 "Exp.Trial" 61 "[[414,469,\"NA\",\"NA\"]]" 61 "Quart" "blue" "degradated" "underlined" "146" NA
253.303 1.958 1075113 "Exp.Trial" 62 "[[290,345,\"NA\",\"NA\"]]" 62 "Tabak" "black" "degradated" "underlined" "316" NA
256.886 2.025 1078696 "Exp.Trial" 63 "[[401,456,\"NA\",\"NA\"]]" 63 "Bogen" "black" "non-degradated" "underlined" "221" NA
260.326 1.802 1082136 "Exp.Trial" 64 "[[265,320,\"NA\",\"NA\"]]" 64 "Hocke" "black" "degradated" "underlined" "308" NA
263.593 2.137 1085403 "Exp.Trial" 65 "[[240,295,\"NA\",\"NA\"]]" 65 "Kutte" "blue" "non-degradated" "not underlined" "9" 0
272.241 1.314 1094051 "Exp.Trial" 66 "[[376,431,\"NA\",\"NA\"]]" 66 "Eifer" "blue" "degradated" "not underlined" "84" NA
275.095 1.65 1096905 "Exp.Trial" 67 "[[389,444,\"NA\",\"NA\"]]" 67 "Abruf" "blue" "non-degradated" "underlined" "71" NA
278.129 2.572 1099939 "Exp.Trial" 68 "[[290,345,\"NA\",\"NA\"]]" 68 "Zobel" "blue" "degradated" "underlined" "158" NA
282.444 2.012 1104254 "Exp.Trial" 69 "[[252,307,\"NA\",\"NA\"]]" 69 "Achse" "black" "non-degradated" "not underlined" "172" 0
291.293 1.679 1113103 "Exp.Trial" 70 "[[215,270,\"NA\",\"NA\"]]" 70 "Psalm" "blue" "degradated" "not underlined" "118" NA
294.499 1.302 1116309 "Exp.Trial" 71 "[[228,283,\"NA\",\"NA\"]]" 71 "Vogel" "black" "non-degradated" "underlined" "206" NA
298.144 1.27 1119954 "Exp.Trial" 72 "[[277,332,\"NA\",\"NA\"]]" 72 "Zeche" "blue" "degradated" "not underlined" "82" NA
301.07 1.918 1122880 "Exp.Trial" 73 "[[525,580,\"NA\",\"NA\"]]" 73 "Polka" "blue" "degradated" "not underlined" "102" NA
304.547 1.929 1126357 "Exp.Trial" 74 "[[252,307,\"NA\",\"NA\"]]" 74 "Hülle" "black" "degradated" "underlined" "294" NA
308.267 1.272 1130077 "Exp.Trial" 75 "[[302,357,\"NA\",\"NA\"]]" 75 "Notiz" "black" "degradated" "not underlined" "242" NA
310.982 2.391 1132792 "Exp.Trial" 76 "[[748,803,\"NA\",\"NA\"]]" 76 "Sühne" "blue" "non-degradated" "not underlined" "18" 0
322.167 1.611 1143977 "Exp.Trial" 77 "[[228,283,\"NA\",\"NA\"]]" 77 "Sturz" "black" "non-degradated" "underlined" "219" NA
325.44 2 1147250 "Exp.Trial" 78 "[[314,369,\"NA\",\"NA\"]]" 78 "Dicke" "blue" "non-degradated" "underlined" "43" 0
334.032 1.203 1155842 "Exp.Trial" 79 "[[290,345,\"NA\",\"NA\"]]" 79 "Motiv" "blue" "non-degradated" "not underlined" "13" NA
336.997 1.228 1158807 "Exp.Trial" 80 "[[327,382,\"NA\",\"NA\"]]" 80 "Kelch" "blue" "non-degradated" "not underlined" "8" NA
339.865 1.856 1161675 "Exp.Trial" 81 "[[327,382,\"NA\",\"NA\"]]" 81 "Daune" "blue" "degradated" "not underlined" "110" NA
343.463 1.597 1165273 "Exp.Trial" 82 "[[414,469,\"NA\",\"NA\"]]" 82 "Stamm" "black" "degradated" "not underlined" "274" NA
346.795 1.582 1168605 "Exp.Trial" 83 "[[240,295,\"NA\",\"NA\"]]" 83 "Matte" "blue" "degradated" "underlined" "143" NA
349.903 1.391 1171713 "Exp.Trial" 84 "[[265,320,\"NA\",\"NA\"]]" 84 "Votum" "black" "degradated" "underlined" "317" NA
352.961 1.494 1174771 "Exp.Trial" 85 "[[314,369,\"NA\",\"NA\"]]" 85 "Twist" "blue" "non-degradated" "underlined" "79" NA
356.129 1.551 1177939 "Exp.Trial" 86 "[[314,369,\"NA\",\"NA\"]]" 86 "Feder" "black" "non-degradated" "underlined" "231" NA
359.109 1.839 1180919 "Exp.Trial" 87 "[[376,431,\"NA\",\"NA\"]]" 87 "Party" "black" "non-degradated" "not underlined" "184" NA
362.381 1.487 1184191 "Exp.Trial" 88 "[[252,307,\"NA\",\"NA\"]]" 88 "Motte" "blue" "non-degradated" "underlined" "63" NA
365.422 2.203 1187232 "Exp.Trial" 89 "[[302,357,\"NA\",\"NA\"]]" 89 "Sigma" "black" "non-degradated" "underlined" "234" NA
369.146 2.558 1190956 "Exp.Trial" 90 "[[228,283,\"NA\",\"NA\"]]" 90 "Kokon" "blue" "non-degradated" "underlined" "52" NA
373.401 1.843 1195211 "Exp.Trial" 91 "[[352,407,\"NA\",\"NA\"]]" 91 "Münze" "blue" "degradated" "not underlined" "94" NA
376.88 2.402 1198690 "Exp.Trial" 92 "[[265,320,\"NA\",\"NA\"]]" 92 "Balte" "black" "non-degradated" "underlined" "239" 0
385.37 1.511 1207180 "Exp.Trial" 93 "[[364,419,\"NA\",\"NA\"]]" 93 "Viper" "blue" "non-degradated" "not underlined" "19" NA
388.231 1.589 1210041 "Exp.Trial" 94 "[[228,283,\"NA\",\"NA\"]]" 94 "Datum" "blue" "degradated" "not underlined" "107" NA
391.451 1.349 1213261 "Exp.Trial" 95 "[[327,382,\"NA\",\"NA\"]]" 95 "Lücke" "blue" "non-degradated" "underlined" "80" NA
394.425 1.256 1216235 "Exp.Trial" 96 "[[277,332,\"NA\",\"NA\"]]" 96 "Slawe" "black" "non-degradated" "not underlined" "171" NA
397.319 1.405 1219129 "Exp.Trial" 97 "[[290,345,\"NA\",\"NA\"]]" 97 "Armee" "black" "degradated" "underlined" "284" NA
400.361 1.945 1222171 "Exp.Trial" 98 "[[228,283,\"NA\",\"NA\"]]" 98 "Alter" "black" "degradated" "underlined" "296" NA
404.035 1.532 1225845 "Exp.Trial" 99 "[[389,444,\"NA\",\"NA\"]]" 99 "Waffe" "black" "non-degradated" "not underlined" "174" NA
407.256 1.794 1229066 "Exp.Trial" 100 "[[277,332,\"NA\",\"NA\"]]" 100 "Pizza" "black" "non-degradated" "underlined" "211" 0
415.077 1.272 1236887 "Exp.Trial" 101 "[[339,394,\"NA\",\"NA\"]]" 101 "Seide" "blue" "degradated" "underlined" "152" NA
418.01 1.453 1239820 "Exp.Trial" 102 "[[414,469,\"NA\",\"NA\"]]" 102 "Sippe" "black" "non-degradated" "not underlined" "188" NA
421.044 1.84 1242854 "Exp.Trial" 103 "[[488,543,\"NA\",\"NA\"]]" 103 "Kreml" "black" "non-degradated" "underlined" "222" NA
424.656 1.414 1246466 "Exp.Trial" 104 "[[215,270,\"NA\",\"NA\"]]" 104 "Union" "blue" "non-degradated" "underlined" "46" NA
428.851 1.499 1250661 "Exp.Trial" 105 "[[240,295,\"NA\",\"NA\"]]" 105 "Stube" "black" "degradated" "not underlined" "273" NA
431.972 1.707 1253782 "Exp.Trial" 106 "[[426,481,\"NA\",\"NA\"]]" 106 "Müsli" "black" "non-degradated" "underlined" "210" NA
435.244 1.467 1257054 "Exp.Trial" 107 "[[426,481,\"NA\",\"NA\"]]" 107 "Beuge" "blue" "non-degradated" "underlined" "73" NA
438.217 1.499 1260027 "Exp.Trial" 108 "[[277,332,\"NA\",\"NA\"]]" 108 "Gerät" "blue" "degradated" "not underlined" "119" NA
441.318 2.034 1263128 "Exp.Trial" 109 "[[277,332,\"NA\",\"NA\"]]" 109 "Kehle" "black" "degradated" "underlined" "319" NA
444.736 1.96 1266546 "Exp.Trial" 110 "[[228,283,\"NA\",\"NA\"]]" 110 "Stern" "black" "non-degradated" "underlined" "237" 0
452.278 1.333 1274088 "Exp.Trial" 111 "[[290,345,\"NA\",\"NA\"]]" 111 "Wunde" "black" "non-degradated" "underlined" "202" 0
459.813 1.507 1281623 "Exp.Trial" 112 "[[376,431,\"NA\",\"NA\"]]" 112 "Zitat" "black" "degradated" "underlined" "311" NA
462.759 1.699 1284569 "Exp.Trial" 113 "[[364,419,\"NA\",\"NA\"]]" 113 "Spreu" "black" "non-degradated" "not underlined" "161" NA
466.091 1.677 1287901 "Exp.Trial" 114 "[[252,307,\"NA\",\"NA\"]]" 114 "Wärme" "blue" "non-degradated" "not underlined" "21" 0
474.354 1.214 1296164 "Exp.Trial" 115 "[[277,332,\"NA\",\"NA\"]]" 115 "Tapir" "blue" "degradated" "not underlined" "92" 0
481.73 1.731 1303540 "Exp.Trial" 116 "[[240,295,\"NA\",\"NA\"]]" 116 "Zinke" "black" "non-degradated" "not underlined" "168" NA
484.898 1.456 1306708 "Exp.Trial" 117 "[[252,307,\"NA\",\"NA\"]]" 117 "Bitte" "black" "non-degradated" "underlined" "235" NA
487.911 1.504 1309721 "Exp.Trial" 118 "[[401,456,\"NA\",\"NA\"]]" 118 "Agent" "black" "degradated" "underlined" "291" NA
490.832 1.648 1312642 "Exp.Trial" 119 "[[401,456,\"NA\",\"NA\"]]" 119 "Lehne" "black" "non-degradated" "underlined" "224" 0
499.11 1.473 1320920 "Exp.Trial" 120 "[[327,382,\"NA\",\"NA\"]]" 120 "Reuse" "black" "degradated" "underlined" "315" NA
501.957 1.674 1323767 "Exp.Trial" 121 "[[252,307,\"NA\",\"NA\"]]" 121 "Motor" "blue" "degradated" "not underlined" "89" NA
505.045 1.449 1326855 "Exp.Trial" 122 "[[376,431,\"NA\",\"NA\"]]" 122 "Würde" "blue" "degradated" "not underlined" "104" NA
508.238 1.616 1330048 "Exp.Trial" 123 "[[252,307,\"NA\",\"NA\"]]" 123 "Druck" "blue" "non-degradated" "underlined" "75" NA
511.298 1.684 1333108 "Exp.Trial" 124 "[[600,655,\"NA\",\"NA\"]]" 124 "Leere" "black" "degradated" "underlined" "290" NA
514.391 1.152 1336201 "Exp.Trial" 125 "[[240,295,\"NA\",\"NA\"]]" 125 "Zecke" "black" "non-degradated" "not underlined" "170" NA
517.054 1.397 1338864 "Exp.Trial" 126 "[[252,307,\"NA\",\"NA\"]]" 126 "Abend" "blue" "non-degradated" "not underlined" "7" NA
520.16 1.42 1341970 "Exp.Trial" 127 "[[265,320,\"NA\",\"NA\"]]" 127 "Natur" "black" "degradated" "not underlined" "246" NA
524.031 1.692 1345841 "Exp.Trial" 128 "[[240,295,\"NA\",\"NA\"]]" 128 "Feger" "black" "degradated" "underlined" "285" 0
531.958 1.171 1353768 "Exp.Trial" 129 "[[339,394,\"NA\",\"NA\"]]" 129 "Insel" "blue" "non-degradated" "not underlined" "2" 0
540.234 1.235 1362044 "Exp.Trial" 130 "[[488,543,\"NA\",\"NA\"]]" 130 "Götze" "black" "non-degradated" "not underlined" "179" 0
547.43 1.835 1369240 "Exp.Trial" 131 "[[240,295,\"NA\",\"NA\"]]" 131 "Gräte" "black" "degradated" "not underlined" "243" NA
550.716 1.575 1372526 "Exp.Trial" 132 "[[339,394,\"NA\",\"NA\"]]" 132 "Ratte" "blue" "non-degradated" "underlined" "49" 0
561.038 1.132 1382848 "Exp.Trial" 133 "[[525,580,\"NA\",\"NA\"]]" 133 "Kakao" "black" "non-degradated" "underlined" "208" 0
569.648 1.232 1391458 "Exp.Trial" 134 "[[252,307,\"NA\",\"NA\"]]" 134 "Minze" "black" "degradated" "underlined" "303" NA
572.462 1.137 1394272 "Exp.Trial" 135 "[[265,320,\"NA\",\"NA\"]]" 135 "Pilot" "blue" "degradated" "underlined" "132" NA
574.966 2.45 1396776 "Exp.Trial" 136 "[[550,605,\"NA\",\"NA\"]]" 136 "Korps" "black" "degradated" "underlined" "309" NA
579.049 1.543 1400859 "Exp.Trial" 137 "[[376,431,\"NA\",\"NA\"]]" 137 "Heide" "black" "non-degradated" "not underlined" "191" NA
582.161 1.394 1403971 "Exp.Trial" 138 "[[240,295,\"NA\",\"NA\"]]" 138 "Abzug" "blue" "degradated" "underlined" "130" 0
590.359 1.101 1412169 "Exp.Trial" 139 "[[339,394,\"NA\",\"NA\"]]" 139 "Falle" "black" "degradated" "not underlined" "244" NA
593.18 1.119 1414990 "Exp.Trial" 140 "[[302,357,\"NA\",\"NA\"]]" 140 "Rache" "black" "non-degradated" "underlined" "223" NA
595.723 1.135 1417533 "Exp.Trial" 141 "[[277,332,\"NA\",\"NA\"]]" 141 "Beton" "blue" "degradated" "underlined" "125" NA
598.334 1.338 1420144 "Exp.Trial" 142 "[[376,431,\"NA\",\"NA\"]]" 142 "Anruf" "blue" "degradated" "not underlined" "91" NA
601.246 1.465 1423056 "Exp.Trial" 143 "[[252,307,\"NA\",\"NA\"]]" 143 "Zwerg" "blue" "degradated" "not underlined" "93" NA
604.087 1.443 1425897 "Exp.Trial" 144 "[[414,469,\"NA\",\"NA\"]]" 144 "Decke" "blue" "degradated" "not underlined" "86" NA
607.176 1.45 1428986 "Exp.Trial" 145 "[[290,345,\"NA\",\"NA\"]]" 145 "Möbel" "black" "non-degradated" "underlined" "226" 0
614.921 1.705 1436731 "Exp.Trial" 146 "[[364,419,\"NA\",\"NA\"]]" 146 "Bande" "black" "non-degradated" "underlined" "209" NA
618.047 1.517 1439857 "Exp.Trial" 147 "[[426,481,\"NA\",\"NA\"]]" 147 "Pfund" "black" "non-degradated" "not underlined" "164" NA
621.315 1.451 1443125 "Exp.Trial" 148 "[[314,369,\"NA\",\"NA\"]]" 148 "Kugel" "black" "non-degradated" "not underlined" "186" NA
624.4 1.459 1446210 "Exp.Trial" 149 "[[438,493,\"NA\",\"NA\"]]" 149 "Hagel" "black" "non-degradated" "underlined" "227" NA
627.5 1.701 1449310 "Exp.Trial" 150 "[[203,258,\"NA\",\"NA\"]]" 150 "Thron" "black" "degradated" "underlined" "307" NA
630.561 2.032 1452371 "Exp.Trial" 151 "[[352,407,\"NA\",\"NA\"]]" 151 "Mimik" "black" "degradated" "underlined" "293" NA
634.105 1.77 1455915 "Exp.Trial" 152 "[[252,307,\"NA\",\"NA\"]]" 152 "Sense" "blue" "non-degradated" "underlined" "44" NA
637.583 2.232 1459393 "Exp.Trial" 153 "[[215,270,\"NA\",\"NA\"]]" 153 "Tarif" "blue" "degradated" "not underlined" "90" NA
641.316 1.832 1463126 "Exp.Trial" 154 "[[327,382,\"NA\",\"NA\"]]" 154 "Zuzug" "blue" "degradated" "not underlined" "106" NA
645.73 1.835 1467540 "Exp.Trial" 155 "[[228,283,\"NA\",\"NA\"]]" 155 "Kunde" "blue" "non-degradated" "not underlined" "20" NA
649.93 1.874 1471740 "Exp.Trial" 156 "[[376,431,\"NA\",\"NA\"]]" 156 "Ärmel" "blue" "non-degradated" "underlined" "76" NA
653.735 1.848 1475545 "Exp.Trial" 157 "[[277,332,\"NA\",\"NA\"]]" 157 "Blech" "blue" "non-degradated" "not underlined" "36" 0
662.417 1.297 1484227 "Exp.Trial" 158 "[[302,357,\"NA\",\"NA\"]]" 158 "Mokka" "black" "degradated" "underlined" "312" NA
665.459 1.727 1487269 "Exp.Trial" 159 "[[240,295,\"NA\",\"NA\"]]" 159 "Messe" "black" "degradated" "underlined" "310" NA
668.611 1.419 1490421 "Exp.Trial" 160 "[[364,419,\"NA\",\"NA\"]]" 160 "Griff" "black" "non-degradated" "underlined" "225" NA
671.426 1.394 1493236 "Exp.Trial" 161 "[[265,320,\"NA\",\"NA\"]]" 161 "Panda" "blue" "non-degradated" "not underlined" "31" NA
674.415 1.322 1496225 "Exp.Trial" 162 "[[314,369,\"NA\",\"NA\"]]" 162 "Boxer" "black" "degradated" "underlined" "313" NA
677.235 1.813 1499045 "Exp.Trial" 163 "[[476,531,\"NA\",\"NA\"]]" 163 "Gusto" "black" "non-degradated" "underlined" "220" 0
685.286 1.183 1507096 "Exp.Trial" 164 "[[426,481,\"NA\",\"NA\"]]" 164 "Meise" "blue" "degradated" "not underlined" "105" NA
688.054 1.524 1509864 "Exp.Trial" 165 "[[252,307,\"NA\",\"NA\"]]" 165 "Mappe" "blue" "non-degradated" "not underlined" "32" NA
691.062 1.383 1512872 "Exp.Trial" 166 "[[327,382,\"NA\",\"NA\"]]" 166 "Beule" "black" "degradated" "not underlined" "266" NA
694.002 1.398 1515812 "Exp.Trial" 167 "[[265,320,\"NA\",\"NA\"]]" 167 "Getön" "black" "non-degradated" "not underlined" "175" 0
705.221 1.347 1527031 "Exp.Trial" 168 "[[290,345,\"NA\",\"NA\"]]" 168 "Elite" "black" "non-degradated" "underlined" "233" NA
708.189 1.585 1529999 "Exp.Trial" 169 "[[302,357,\"NA\",\"NA\"]]" 169 "Viola" "black" "non-degradated" "underlined" "217" 0
718.026 1.13 1539836 "Exp.Trial" 170 "[[252,307,\"NA\",\"NA\"]]" 170 "Klotz" "blue" "degradated" "underlined" "136" NA
720.516 1.906 1542326 "Exp.Trial" 171 "[[277,332,\"NA\",\"NA\"]]" 171 "Dunst" "blue" "degradated" "underlined" "150" NA
723.987 2.1 1545797 "Exp.Trial" 172 "[[339,394,\"NA\",\"NA\"]]" 172 "Gebet" "blue" "degradated" "underlined" "156" NA
727.656 1.813 1549466 "Exp.Trial" 173 "[[228,283,\"NA\",\"NA\"]]" 173 "Ritze" "black" "degradated" "underlined" "318" NA
731.083 1.565 1552893 "Exp.Trial" 174 "[[265,320,\"NA\",\"NA\"]]" 174 "Aktie" "black" "degradated" "not underlined" "248" NA
734.059 1.553 1555869 "Exp.Trial" 175 "[[290,345,\"NA\",\"NA\"]]" 175 "Seife" "blue" "non-degradated" "not underlined" "6" NA
736.953 1.884 1558763 "Exp.Trial" 176 "[[228,283,\"NA\",\"NA\"]]" 176 "Blatt" "blue" "degradated" "not underlined" "115" 0
744.32 1.605 1566130 "Exp.Trial" 177 "[[513,568,\"NA\",\"NA\"]]" 177 "Quint" "black" "degradated" "not underlined" "265" NA
747.482 1.476 1569292 "Exp.Trial" 178 "[[513,568,\"NA\",\"NA\"]]" 178 "Modul" "blue" "degradated" "underlined" "127" 0
754.392 1.267 1576202 "Exp.Trial" 179 "[[252,307,\"NA\",\"NA\"]]" 179 "Knabe" "blue" "non-degradated" "not underlined" "1" NA
757.105 1.329 1578915 "Exp.Trial" 180 "[[451,506,\"NA\",\"NA\"]]" 180 "Äther" "blue" "non-degradated" "not underlined" "34" NA
760.033 1.676 1581843 "Exp.Trial" 181 "[[277,332,\"NA\",\"NA\"]]" 181 "Kerze" "black" "non-degradated" "not underlined" "165" NA
764.009 2.179 1585819 "Exp.Trial" 182 "[[364,419,\"NA\",\"NA\"]]" 182 "Axiom" "blue" "non-degradated" "not underlined" "27" NA
767.707 1.533 1589517 "Exp.Trial" 183 "[[265,320,\"NA\",\"NA\"]]" 183 "Bombe" "blue" "degradated" "underlined" "129" 0
774.816 1.693 1596626 "Exp.Trial" 184 "[[240,295,\"NA\",\"NA\"]]" 184 "Amsel" "blue" "degradated" "underlined" "137" NA
777.883 1.996 1599693 "Exp.Trial" 185 "[[339,394,\"NA\",\"NA\"]]" 185 "Drill" "blue" "degradated" "underlined" "128" NA
781.442 1.078 1603252 "Exp.Trial" 186 "[[290,345,\"NA\",\"NA\"]]" 186 "Fülle" "black" "degradated" "not underlined" "271" NA
783.951 1.409 1605761 "Exp.Trial" 187 "[[314,369,\"NA\",\"NA\"]]" 187 "Kajak" "black" "non-degradated" "not underlined" "190" NA
786.885 1.667 1608695 "Exp.Trial" 188 "[[352,407,\"NA\",\"NA\"]]" 188 "Witwe" "blue" "non-degradated" "underlined" "64" NA
790.45 1.745 1612260 "Exp.Trial" 189 "[[401,456,\"NA\",\"NA\"]]" 189 "Weihe" "black" "degradated" "not underlined" "264" NA
793.617 1.5 1615427 "Exp.Trial" 190 "[[339,394,\"NA\",\"NA\"]]" 190 "Trott" "black" "non-degradated" "not underlined" "194" NA
796.723 1.791 1618533 "Exp.Trial" 191 "[[314,369,\"NA\",\"NA\"]]" 191 "Brust" "black" "degradated" "not underlined" "251" NA
800.686 1.348 1622496 "Exp.Trial" 192 "[[265,320,\"NA\",\"NA\"]]" 192 "Nonne" "black" "non-degradated" "not underlined" "198" 0
807.411 1.117 1629221 "Exp.Trial" 193 "[[290,345,\"NA\",\"NA\"]]" 193 "Sitte" "blue" "degradated" "underlined" "151" NA
810.702 1.36 1632512 "Exp.Trial" 194 "[[290,345,\"NA\",\"NA\"]]" 194 "Porto" "blue" "non-degradated" "underlined" "59" NA
815.609 1.818 1637419 "Exp.Trial" 195 "[[476,531,\"NA\",\"NA\"]]" 195 "Wanst" "black" "degradated" "underlined" "297" NA
820.62 1.57 1642430 "Exp.Trial" 196 "[[252,307,\"NA\",\"NA\"]]" 196 "Kette" "black" "non-degradated" "not underlined" "199" NA
825.566 1.369 1647376 "Exp.Trial" 197 "[[265,320,\"NA\",\"NA\"]]" 197 "Nugat" "blue" "non-degradated" "underlined" "55" NA
829.523 1.783 1651333 "Exp.Trial" 198 "[[302,357,\"NA\",\"NA\"]]" 198 "Kolik" "black" "degradated" "not underlined" "253" NA
833.434 1.837 1655244 "Exp.Trial" 199 "[[228,283,\"NA\",\"NA\"]]" 199 "Orbit" "black" "degradated" "underlined" "287" NA
836.638 1.636 1658448 "Exp.Trial" 200 "[[277,332,\"NA\",\"NA\"]]" 200 "Kater" "black" "degradated" "not underlined" "252" 0
844.112 1.263 1665922 "Exp.Trial" 201 "[[438,493,\"NA\",\"NA\"]]" 201 "Musik" "black" "non-degradated" "not underlined" "200" NA
846.961 1.503 1668771 "Exp.Trial" 202 "[[476,531,\"NA\",\"NA\"]]" 202 "Reibe" "black" "degradated" "underlined" "295" NA
850.148 2.106 1671958 "Exp.Trial" 203 "[[339,394,\"NA\",\"NA\"]]" 203 "Buche" "blue" "degradated" "underlined" "122" NA
853.924 1.154 1675734 "Exp.Trial" 204 "[[290,345,\"NA\",\"NA\"]]" 204 "Anker" "blue" "non-degradated" "not underlined" "22" NA
857.063 1.952 1678873 "Exp.Trial" 205 "[[240,295,\"NA\",\"NA\"]]" 205 "Lauge" "black" "non-degradated" "underlined" "236" 0
866.305 1.429 1688115 "Exp.Trial" 206 "[[376,431,\"NA\",\"NA\"]]" 206 "Rispe" "black" "degradated" "not underlined" "275" NA
872.405 1.338 1694215 "Exp.Trial" 207 "[[228,283,\"NA\",\"NA\"]]" 207 "Kleid" "black" "degradated" "underlined" "281" NA
875.107 1.615 1696917 "Exp.Trial" 208 "[[476,531,\"NA\",\"NA\"]]" 208 "Lunge" "blue" "degradated" "not underlined" "81" 0
884.593 1.703 1706403 "Exp.Trial" 209 "[[525,580,\"NA\",\"NA\"]]" 209 "Heber" "black" "degradated" "underlined" "292" NA
887.673 1.98 1709483 "Exp.Trial" 210 "[[314,369,\"NA\",\"NA\"]]" 210 "Zucht" "blue" "degradated" "not underlined" "111" NA
891.875 1.985 1713685 "Exp.Trial" 211 "[[302,357,\"NA\",\"NA\"]]" 211 "Markt" "blue" "non-degradated" "underlined" "74" NA
895.957 1.349 1717767 "Exp.Trial" 212 "[[314,369,\"NA\",\"NA\"]]" 212 "Beruf" "blue" "non-degradated" "not underlined" "17" NA
903.068 1.415 1724878 "Exp.Trial" 213 "[[314,369,\"NA\",\"NA\"]]" 213 "Gecko" "black" "degradated" "not underlined" "268" NA
906.619 1.96 1728429 "Exp.Trial" 214 "[[277,332,\"NA\",\"NA\"]]" 214 "Mensa" "blue" "degradated" "not underlined" "83" 0
914.326 2.029 1736136 "Exp.Trial" 215 "[[252,307,\"NA\",\"NA\"]]" 215 "Fehde" "black" "non-degradated" "not underlined" "176" NA
917.725 2.073 1739535 "Exp.Trial" 216 "[[389,444,\"NA\",\"NA\"]]" 216 "Logik" "blue" "degradated" "underlined" "144" 0
925.876 1.301 1747686 "Exp.Trial" 217 "[[389,444,\"NA\",\"NA\"]]" 217 "Bauer" "black" "non-degradated" "not underlined" "196" NA
928.553 1.45 1750363 "Exp.Trial" 218 "[[414,469,\"NA\",\"NA\"]]" 218 "Plane" "black" "degradated" "not underlined" "277" NA
932.063 1.532 1753873 "Exp.Trial" 219 "[[228,283,\"NA\",\"NA\"]]" 219 "Krebs" "blue" "non-degradated" "not underlined" "29" NA
935.642 1.928 1757452 "Exp.Trial" 220 "[[327,382,\"NA\",\"NA\"]]" 220 "Sorte" "black" "degradated" "underlined" "299" NA
939.385 1.238 1761195 "Exp.Trial" 221 "[[215,270,\"NA\",\"NA\"]]" 221 "Liege" "black" "degradated" "not underlined" "280" NA
941.989 1.884 1763799 "Exp.Trial" 222 "[[302,357,\"NA\",\"NA\"]]" 222 "Säule" "blue" "degradated" "underlined" "126" NA
945.432 1.682 1767242 "Exp.Trial" 223 "[[451,506,\"NA\",\"NA\"]]" 223 "Ziege" "blue" "non-degradated" "underlined" "51" NA
948.746 1.44 1770556 "Exp.Trial" 224 "[[352,407,\"NA\",\"NA\"]]" 224 "Dogma" "blue" "non-degradated" "underlined" "67" 0
956.937 1.217 1778747 "Exp.Trial" 225 "[[352,407,\"NA\",\"NA\"]]" 225 "Radio" "blue" "degradated" "not underlined" "109" NA
959.659 1.445 1781469 "Exp.Trial" 226 "[[302,357,\"NA\",\"NA\"]]" 226 "Waage" "black" "degradated" "not underlined" "255" NA
962.566 1.515 1784376 "Exp.Trial" 227 "[[228,283,\"NA\",\"NA\"]]" 227 "Onkel" "blue" "non-degradated" "not underlined" "35" NA
965.445 1.447 1787255 "Exp.Trial" 228 "[[277,332,\"NA\",\"NA\"]]" 228 "Salbe" "black" "degradated" "not underlined" "247" NA
968.56 2.012 1790370 "Exp.Trial" 229 "[[265,320,\"NA\",\"NA\"]]" 229 "Moder" "blue" "degradated" "not underlined" "97" NA
971.913 1.846 1793723 "Exp.Trial" 230 "[[252,307,\"NA\",\"NA\"]]" 230 "Panne" "black" "degradated" "not underlined" "276" NA
975.425 1.743 1797235 "Exp.Trial" 231 "[[500,555,\"NA\",\"NA\"]]" 231 "Tulpe" "black" "degradated" "not underlined" "245" 0
982.852 1.143 1804662 "Exp.Trial" 232 "[[228,283,\"NA\",\"NA\"]]" 232 "Hecke" "black" "non-degradated" "underlined" "230" NA
985.397 1.37 1807207 "Exp.Trial" 233 "[[265,320,\"NA\",\"NA\"]]" 233 "Zeder" "black" "degradated" "underlined" "304" NA
988.156 1.483 1809966 "Exp.Trial" 234 "[[215,270,\"NA\",\"NA\"]]" 234 "Pirat" "blue" "degradated" "underlined" "133" NA
991.024 1.795 1812834 "Exp.Trial" 235 "[[228,283,\"NA\",\"NA\"]]" 235 "Genre" "black" "degradated" "not underlined" "249" NA
994.218 1.532 1816028 "Exp.Trial" 236 "[[352,407,\"NA\",\"NA\"]]" 236 "Optik" "black" "degradated" "underlined" "301" 0
1005.834 1.295 1827644 "Exp.Trial" 237 "[[302,357,\"NA\",\"NA\"]]" 237 "Feile" "black" "non-degradated" "not underlined" "185" NA
1008.754 1.49 1830564 "Exp.Trial" 238 "[[228,283,\"NA\",\"NA\"]]" 238 "Ölung" "blue" "non-degradated" "not underlined" "14" NA
1011.762 1.897 1833572 "Exp.Trial" 239 "[[265,320,\"NA\",\"NA\"]]" 239 "Prinz" "black" "non-degradated" "not underlined" "166" NA
1015.221 1.639 1837031 "Exp.Trial" 240 "[[252,307,\"NA\",\"NA\"]]" 240 "Zicke" "black" "non-degradated" "not underlined" "183" NA
1018.259 1.848 1840069 "Exp.Trial" 241 "[[414,469,\"NA\",\"NA\"]]" 241 "Fjord" "black" "degradated" "underlined" "283" NA
1021.6 1.375 1843410 "Exp.Trial" 242 "[[265,320,\"NA\",\"NA\"]]" 242 "Tante" "black" "non-degradated" "underlined" "215" NA
1024.6 1.261 1846410 "Exp.Trial" 243 "[[215,270,\"NA\",\"NA\"]]" 243 "Linse" "black" "non-degradated" "not underlined" "162" NA
1027.235 1.255 1849045 "Exp.Trial" 244 "[[339,394,\"NA\",\"NA\"]]" 244 "Malve" "black" "degradated" "not underlined" "241" 0
1034.232 1.267 1856042 "Exp.Trial" 245 "[[314,369,\"NA\",\"NA\"]]" 245 "Luder" "black" "degradated" "not underlined" "259" NA
1037.066 1.314 1858876 "Exp.Trial" 246 "[[376,431,\"NA\",\"NA\"]]" 246 "These" "blue" "non-degradated" "underlined" "53" NA
1039.742 1.704 1861552 "Exp.Trial" 247 "[[302,357,\"NA\",\"NA\"]]" 247 "China" "black" "degradated" "not underlined" "257" NA
1042.995 1.325 1864805 "Exp.Trial" 248 "[[240,295,\"NA\",\"NA\"]]" 248 "Trupp" "black" "degradated" "not underlined" "262" NA
1045.929 1.811 1867739 "Exp.Trial" 249 "[[426,481,\"NA\",\"NA\"]]" 249 "Buchs" "blue" "non-degradated" "not underlined" "5" NA
1049.177 1.701 1870987 "Exp.Trial" 250 "[[228,283,\"NA\",\"NA\"]]" 250 "Basar" "black" "non-degradated" "underlined" "203" 0
1056.955 1.701 1878765 "Exp.Trial" 251 "[[228,283,\"NA\",\"NA\"]]" 251 "Kongo" "blue" "non-degradated" "not underlined" "15" NA
1060.328 1.145 1882138 "Exp.Trial" 252 "[[339,394,\"NA\",\"NA\"]]" 252 "Raupe" "blue" "degradated" "underlined" "153" NA
1063.016 1.517 1884826 "Exp.Trial" 253 "[[228,283,\"NA\",\"NA\"]]" 253 "Laken" "black" "degradated" "underlined" "298" 0
1070.437 1.056 1892247 "Exp.Trial" 254 "[[364,419,\"NA\",\"NA\"]]" 254 "Polio" "blue" "degradated" "not underlined" "103" NA
1072.894 1.285 1894704 "Exp.Trial" 255 "[[376,431,\"NA\",\"NA\"]]" 255 "Werft" "blue" "degradated" "not underlined" "87" NA
1075.947 1.299 1897757 "Exp.Trial" 256 "[[252,307,\"NA\",\"NA\"]]" 256 "Major" "black" "non-degradated" "not underlined" "195" NA
1078.85 1.276 1900660 "Exp.Trial" 257 "[[352,407,\"NA\",\"NA\"]]" 257 "Fötus" "black" "degradated" "underlined" "289" 0
1085.918 1.169 1907728 "Exp.Trial" 258 "[[314,369,\"NA\",\"NA\"]]" 258 "Rinde" "blue" "degradated" "underlined" "148" NA
1088.46 1.217 1910270 "Exp.Trial" 259 "[[228,283,\"NA\",\"NA\"]]" 259 "Runde" "blue" "degradated" "not underlined" "108" NA
1091.035 1.918 1912845 "Exp.Trial" 260 "[[228,283,\"NA\",\"NA\"]]" 260 "Lager" "blue" "degradated" "underlined" "145" NA
1094.35 1.314 1916160 "Exp.Trial" 261 "[[290,345,\"NA\",\"NA\"]]" 261 "Otter" "blue" "degradated" "not underlined" "112" NA
1097.316 1.633 1919126 "Exp.Trial" 262 "[[252,307,\"NA\",\"NA\"]]" 262 "Abgas" "blue" "degradated" "underlined" "138" NA
1100.522 1.715 1922332 "Exp.Trial" 263 "[[488,543,\"NA\",\"NA\"]]" 263 "Tisch" "blue" "non-degradated" "underlined" "62" NA
1103.702 1.709 1925512 "Exp.Trial" 264 "[[327,382,\"NA\",\"NA\"]]" 264 "Regie" "blue" "degradated" "not underlined" "116" NA
1106.808 1.817 1928618 "Exp.Trial" 265 "[[277,332,\"NA\",\"NA\"]]" 265 "Kluft" "black" "degradated" "not underlined" "258" 0
1115.299 1.12 1937109 "Exp.Trial" 266 "[[252,307,\"NA\",\"NA\"]]" 266 "Depot" "blue" "degradated" "underlined" "135" NA
1117.962 1.439 1939772 "Exp.Trial" 267 "[[426,481,\"NA\",\"NA\"]]" 267 "Troll" "blue" "non-degradated" "underlined" "57" NA
1120.882 2.161 1942692 "Exp.Trial" 268 "[[277,332,\"NA\",\"NA\"]]" 268 "Chrom" "black" "non-degradated" "underlined" "213" NA
1124.473 1.953 1946283 "Exp.Trial" 269 "[[314,369,\"NA\",\"NA\"]]" 269 "Villa" "black" "non-degradated" "underlined" "240" 0
1131.635 1.437 1953445 "Exp.Trial" 270 "[[327,382,\"NA\",\"NA\"]]" 270 "Knast" "black" "degradated" "not underlined" "278" NA
1134.696 2.217 1956506 "Exp.Trial" 271 "[[215,270,\"NA\",\"NA\"]]" 271 "Hüter" "blue" "non-degradated" "underlined" "66" NA
1138.313 1.73 1960123 "Exp.Trial" 272 "[[228,283,\"NA\",\"NA\"]]" 272 "Phase" "blue" "non-degradated" "underlined" "69" NA
1141.46 1.566 1963270 "Exp.Trial" 273 "[[339,394,\"NA\",\"NA\"]]" 273 "Weber" "blue" "non-degradated" "not underlined" "38" NA
1144.633 1.245 1966443 "Exp.Trial" 274 "[[302,357,\"NA\",\"NA\"]]" 274 "Treff" "black" "degradated" "not underlined" "270" NA
1147.288 1.643 1969098 "Exp.Trial" 275 "[[339,394,\"NA\",\"NA\"]]" 275 "Opfer" "blue" "degradated" "underlined" "157" NA
1150.322 1.195 1972132 "Exp.Trial" 276 "[[277,332,\"NA\",\"NA\"]]" 276 "Wüste" "black" "degradated" "not underlined" "261" NA
1154.106 1.813 1975916 "Exp.Trial" 277 "[[240,295,\"NA\",\"NA\"]]" 277 "Strom" "black" "non-degradated" "not underlined" "163" NA
1158.574 1.511 1980384 "Exp.Trial" 278 "[[240,295,\"NA\",\"NA\"]]" 278 "Plage" "blue" "non-degradated" "underlined" "54" NA
1161.733 1.404 1983543 "Exp.Trial" 279 "[[352,407,\"NA\",\"NA\"]]" 279 "Stola" "blue" "degradated" "underlined" "124" NA
1164.947 1.401 1986757 "Exp.Trial" 280 "[[290,345,\"NA\",\"NA\"]]" 280 "Bürde" "black" "non-degradated" "underlined" "238" NA
1167.933 1.477 1989743 "Exp.Trial" 281 "[[277,332,\"NA\",\"NA\"]]" 281 "Geist" "blue" "degradated" "underlined" "134" NA
1171.751 1.621 1993561 "Exp.Trial" 282 "[[401,456,\"NA\",\"NA\"]]" 282 "Kiste" "black" "non-degradated" "not underlined" "187" NA
1175.68 1.609 1997490 "Exp.Trial" 283 "[[302,357,\"NA\",\"NA\"]]" 283 "Teint" "black" "non-degradated" "underlined" "229" 0
1183.854 1.083 2005664 "Exp.Trial" 284 "[[228,283,\"NA\",\"NA\"]]" 284 "Etage" "black" "degradated" "not underlined" "260" NA
1186.474 1.337 2008284 "Exp.Trial" 285 "[[376,431,\"NA\",\"NA\"]]" 285 "Sehne" "blue" "non-degradated" "not underlined" "26" NA
1189.229 1.028 2011039 "Exp.Trial" 286 "[[314,369,\"NA\",\"NA\"]]" 286 "Mafia" "blue" "non-degradated" "not underlined" "16" NA
1192.011 1.273 2013821 "Exp.Trial" 287 "[[228,283,\"NA\",\"NA\"]]" 287 "Masse" "blue" "non-degradated" "underlined" "50" NA
1195.456 0.958 2017266 "Exp.Trial" 288 "[[228,283,\"NA\",\"NA\"]]" 288 "Regal" "blue" "non-degradated" "not underlined" "10" NA
1197.845 1.518 2019655 "Exp.Trial" 289 "[[476,531,\"NA\",\"NA\"]]" 289 "Erlös" "blue" "non-degradated" "underlined" "47" NA
1200.96 1.747 2022770 "Exp.Trial" 290 "[[488,543,\"NA\",\"NA\"]]" 290 "Bühne" "blue" "degradated" "not underlined" "101" 0
1215.709 1.373 2037519 "Exp.Trial" 291 "[[228,283,\"NA\",\"NA\"]]" 291 "Echse" "black" "degradated" "underlined" "288" NA
1218.517 1.128 2040327 "Exp.Trial" 292 "[[339,394,\"NA\",\"NA\"]]" 292 "Spore" "blue" "non-degradated" "underlined" "42" NA
1221.285 1.259 2043095 "Exp.Trial" 293 "[[252,307,\"NA\",\"NA\"]]" 293 "Klima" "blue" "degradated" "underlined" "141" NA
1224.478 1.31 2046288 "Exp.Trial" 294 "[[414,469,\"NA\",\"NA\"]]" 294 "Pfand" "black" "non-degradated" "underlined" "201" NA
1227.439 1.391 2049249 "Exp.Trial" 295 "[[240,295,\"NA\",\"NA\"]]" 295 "Flair" "blue" "degradated" "underlined" "147" NA
1230.479 0.963 2052289 "Exp.Trial" 296 "[[414,469,\"NA\",\"NA\"]]" 296 "Block" "blue" "non-degradated" "underlined" "60" NA
1232.982 1.114 2054792 "Exp.Trial" 297 "[[228,283,\"NA\",\"NA\"]]" 297 "Nylon" "blue" "degradated" "underlined" "139" 0
1239.62 1.238 2061430 "Exp.Trial" 298 "[[252,307,\"NA\",\"NA\"]]" 298 "Tunke" "blue" "non-degradated" "not underlined" "30" 0
1247.978 1.154 2069788 "Exp.Trial" 299 "[[228,283,\"NA\",\"NA\"]]" 299 "Mango" "black" "degradated" "underlined" "286" NA
1250.599 1.312 2072409 "Exp.Trial" 300 "[[389,444,\"NA\",\"NA\"]]" 300 "Beute" "black" "non-degradated" "not underlined" "169" NA
1253.521 1.301 2075331 "Exp.Trial" 301 "[[376,431,\"NA\",\"NA\"]]" 301 "Wolle" "blue" "degradated" "underlined" "159" NA
1256.646 1.626 2078456 "Exp.Trial" 302 "[[252,307,\"NA\",\"NA\"]]" 302 "Belag" "black" "non-degradated" "underlined" "218" NA
1259.714 1.743 2081524 "Exp.Trial" 303 "[[314,369,\"NA\",\"NA\"]]" 303 "Härte" "blue" "non-degradated" "underlined" "72" NA
1262.839 1.792 2084649 "Exp.Trial" 304 "[[277,332,\"NA\",\"NA\"]]" 304 "Datei" "blue" "degradated" "underlined" "140" NA
1266.199 1.427 2088009 "Exp.Trial" 305 "[[352,407,\"NA\",\"NA\"]]" 305 "Paket" "blue" "non-degradated" "underlined" "77" NA
1269.839 1.513 2091649 "Exp.Trial" 306 "[[352,407,\"NA\",\"NA\"]]" 306 "Lachs" "blue" "non-degradated" "not underlined" "24" NA
1272.811 1.26 2094621 "Exp.Trial" 307 "[[277,332,\"NA\",\"NA\"]]" 307 "Enkel" "black" "non-degradated" "underlined" "205" NA
1275.532 1.369 2097342 "Exp.Trial" 308 "[[314,369,\"NA\",\"NA\"]]" 308 "Ikone" "black" "degradated" "not underlined" "267" 0
1281.932 1.066 2103742 "Exp.Trial" 309 "[[240,295,\"NA\",\"NA\"]]" 309 "Pfahl" "black" "non-degradated" "not underlined" "189" NA
1284.608 1.123 2106418 "Exp.Trial" 310 "[[314,369,\"NA\",\"NA\"]]" 310 "Pedal" "black" "non-degradated" "underlined" "214" NA
1287.555 2.09 2109365 "Exp.Trial" 311 "[[339,394,\"NA\",\"NA\"]]" 311 "Fauna" "blue" "non-degradated" "underlined" "68" NA
1291.094 1.407 2112904 "Exp.Trial" 312 "[[252,307,\"NA\",\"NA\"]]" 312 "Ruder" "black" "non-degradated" "underlined" "228" NA
1293.876 1.35 2115686 "Exp.Trial" 313 "[[327,382,\"NA\",\"NA\"]]" 313 "Ungar" "blue" "degradated" "not underlined" "95" NA
1296.829 1.485 2118639 "Exp.Trial" 314 "[[240,295,\"NA\",\"NA\"]]" 314 "Szene" "blue" "non-degradated" "not underlined" "23" NA
1299.962 1.968 2121772 "Exp.Trial" 315 "[[327,382,\"NA\",\"NA\"]]" 315 "Karte" "black" "degradated" "not underlined" "254" NA
1303.621 1.745 2125431 "Exp.Trial" 316 "[[327,382,\"NA\",\"NA\"]]" 316 "Laich" "blue" "degradated" "not underlined" "113" NA
1306.752 1.771 2128562 "Exp.Trial" 317 "[[215,270,\"NA\",\"NA\"]]" 317 "Bowle" "black" "degradated" "not underlined" "269" NA
1310.158 2.023 2131968 "Exp.Trial" 318 "[[252,307,\"NA\",\"NA\"]]" 318 "Madam" "blue" "non-degradated" "not underlined" "4" NA
1313.623 1.575 2135433 "Exp.Trial" 319 "[[352,407,\"NA\",\"NA\"]]" 319 "Zwang" "black" "degradated" "not underlined" "272" NA
1316.77 1.369 2138580 "Exp.Trial" 320 "[[302,357,\"NA\",\"NA\"]]" 320 "Anbau" "black" "degradated" "not underlined" "250" 0
